frame,time,x,y,z,velocity_x,velocity_y,velocity_z,speed,acceleration_x,acceleration_y,acceleration_z,acceleration_magnitude
1,0.0,0.0,0.0,1.600994983164128e-05,0.0,0.0,0.0,0.0,0.0,0.0,0.0,0.0
2,0.05,0.0,0.0,0.005299352575093508,0.0,0.0,0.10566685348749161,0.10566685315041352,0.0,0.0,2.113337278366089,2.1133373203701273
3,0.1,0.0,0.0,0.010582695715129375,0.0,0.0,0.10566685348749161,0.10566685315041352,0.0,0.0,-4.470348358154297e-07,4.470348358154297e-07
4,0.15,0.0,0.0,0.01586603745818138,0.0,0.0,0.1056668609380722,0.1056668619641759,0.0,0.0,7.450580596923828e-07,7.450580596923828e-07
5,0.2,0.0,0.0,0.02114938199520111,0.0,0.0,0.1056668758392334,0.10566687518481811,0.0,0.0,-1.4901161193847656e-07,1.4901161193847656e-07
6,0.25,0.0,0.0,0.02643272466957569,0.0,0.0,0.10566685348749161,0.10566685315041352,0.0,0.0,-4.470348358154297e-07,4.470348358154297e-07
7,0.3,0.0,0.0,0.03171606734395027,0.0,0.0,0.1056668758392334,0.10566687518481811,0.0,0.0,7.450580596923828e-07,7.450580596923828e-07
8,0.35,0.0,0.0,0.03699941188097,0.0,0.0,0.10566685348749161,0.10566685315041352,0.0,0.0,-1.1920928955078125e-06,1.1920928955078125e-06
9,0.4,0.0,0.0,0.04228275269269943,0.0,0.0,0.10566689074039459,0.10566689281233847,0.0,0.0,2.2351741790771484e-06,2.2351741790771484e-06
10,0.45,0.0,0.0,0.04756610095500946,0.0,0.0,0.10566689074039459,0.10566689281233847,0.0,0.0,-1.4901161193847656e-06,1.4901161193847656e-06
11,0.5,0.0,0.0,0.05284944176673889,0.0,0.0,0.10566677898168564,0.10566677823340355,0.0,0.0,-2.9802322387695312e-06,2.9802322387695312e-06
12,0.55,0.0,0.0,0.058132778853178024,0.0,0.0,0.10566689074039459,0.10566689281233847,0.0,0.0,5.21540641784668e-06,5.21540641784668e-06
13,0.6,0.0,0.0,0.06341613084077835,0.0,0.0,0.10566692799329758,0.10566692806737037,0.0,0.0,-1.4901161193847656e-06,1.4901161193847656e-06
14,0.65,0.0,0.0,0.06869947165250778,0.0,0.0,0.10566681623458862,0.10566681789535662,0.0,0.0,-2.2351741790771484e-06,2.2351741790771484e-06
15,0.7,0.0,0.0,0.07398281246423721,0.0,0.0,0.10566681623458862,0.10566681789535662,0.0,0.0,0.0,0.0
16,0.75,0.0,0.0,0.07926615327596664,0.0,0.0,0.10566689074039459,0.10566689281233847,0.0,0.0,2.9802322387695312e-06,2.9802322387695312e-06
17,0.8,0.0,0.0,0.08454950153827667,0.0,0.0,0.10566681623458862,0.10566681789535662,0.0,0.0,-4.470348358154297e-06,4.470348358154297e-06
18,0.85,0.0,0.0,0.0898328348994255,0.0,0.0,0.10566681623458862,0.10566681789535662,0.0,0.0,2.9802322387695312e-06,2.9802322387695312e-06
19,0.9,0.0,0.0,0.09511618316173553,0.0,0.0,0.10566696524620056,0.1056669633223905,0.0,0.0,2.9802322387695312e-06,2.9802322387695312e-06
20,0.95,0.0,0.0,0.10039953142404556,0.0,0.0,0.10566681623458862,0.10566681789535662,0.0,0.0,-5.9604644775390625e-06,5.9604644775390625e-06
21,1.0,0.0,0.0,0.1056828647851944,0.0,0.0,0.10566681623458862,0.10566681789535662,0.0,0.0,2.9802322387695312e-06,2.9802322387695312e-06
22,1.05,0.0,0.0,0.11096621304750443,0.0,0.0,0.10566681623458862,0.10566681789535662,0.0,0.0,-2.9802322387695312e-06,2.9802322387695312e-06
23,1.1,0.0,0.0,0.11624954640865326,0.0,0.0,0.10566681623458862,0.10566681789535662,0.0,0.0,2.9802322387695312e-06,2.9802322387695312e-06
24,1.15,0.0,0.0,0.12153289467096329,0.0,0.0,0.10566696524620056,0.1056669633223905,0.0,0.0,2.9802322387695312e-06,2.9802322387695312e-06
25,1.2,0.0,0.0,0.12681624293327332,0.0,0.0,0.10566689074039459,0.10566689281233847,0.0,0.0,-2.9802322387695312e-06,2.9802322387695312e-06
26,1.25,0.0,0.0,0.13209958374500275,0.0,0.0,0.10566681623458862,0.10566681789535662,0.0,0.0,-1.4901161193847656e-06,1.4901161193847656e-06
27,1.3,0.0,0.0,0.13738292455673218,0.0,0.0,0.10566681623458862,0.10566681789535662,0.0,0.0,0.0,0.0
28,1.35,0.0,0.0,0.1426662653684616,0.0,0.0,0.10566681623458862,0.10566681789535662,0.0,0.0,0.0,0.0
29,1.4,0.0,0.0,0.14794960618019104,0.0,0.0,0.10566681623458862,0.10566681789535662,0.0,0.0,0.0,0.0
30,1.45,0.0,0.0,0.15323294699192047,0.0,0.0,0.10566681623458862,0.10566681789535662,0.0,0.0,0.0,0.0
31,1.5,0.0,0.0,0.1585162878036499,0.0,0.0,0.10566666722297668,0.10566666806123358,0.0,0.0,-5.9604644775390625e-06,5.9604644775390625e-06
32,1.55,0.0,0.0,0.16379961371421814,0.0,0.0,0.10566681623458862,0.10566681789535662,0.0,0.0,8.940696716308594e-06,8.940696716308594e-06
33,1.6,0.0,0.0,0.16908296942710876,0.0,0.0,0.1056671142578125,0.10566711315609487,0.0,0.0,5.9604644775390625e-06,5.9604644775390625e-06
34,1.65,0.0,0.0,0.1743663251399994,0.0,0.0,0.10566696524620056,0.1056669633223905,0.0,0.0,-5.9604644775390625e-06,5.9604644775390625e-06
35,1.7,0.0,0.0,0.17964966595172882,0.0,0.0,0.10566681623458862,0.10566681789535662,0.0,0.0,-2.9802322387695312e-06,2.9802322387695312e-06
36,1.75,0.0,0.0,0.18493300676345825,0.0,0.0,0.10566681623458862,0.10566681789535662,0.0,0.0,0.0,0.0
37,1.8,0.0,0.0,0.19021634757518768,0.0,0.0,0.10566696524620056,0.1056669633223905,0.0,0.0,5.9604644775390625e-06,5.9604644775390625e-06
38,1.85,0.0,0.0,0.1954997032880783,0.0,0.0,0.10566696524620056,0.1056669633223905,0.0,0.0,-2.9802322387695312e-06,2.9802322387695312e-06
39,1.9,0.0,0.0,0.20078304409980774,0.0,0.0,0.10566666722297668,0.10566666806123358,0.0,0.0,-8.940696716308594e-06,8.940696716308594e-06
40,1.95,0.0,0.0,0.20606637001037598,0.0,0.0,0.10566681623458862,0.10566681789535662,0.0,0.0,8.940696716308594e-06,8.940696716308594e-06
41,2.0,0.0,0.0,0.2113497257232666,0.0,0.0,0.10566681623458862,0.10566681789535662,0.0,0.0,-5.9604644775390625e-06,5.9604644775390625e-06
42,2.05,0.0,0.0,0.21663305163383484,0.0,0.0,0.10566681623458862,0.10566681789535662,0.0,0.0,5.9604644775390625e-06,5.9604644775390625e-06
43,2.1,0.0,0.0,0.22191640734672546,0.0,0.0,0.1056671142578125,0.10566711315609487,0.0,0.0,5.9604644775390625e-06,5.9604644775390625e-06
44,2.15,0.0,0.0,0.2271997630596161,0.0,0.0,0.1056671142578125,0.10566711315609487,0.0,0.0,0.0,0.0
45,2.2,0.0,0.0,0.2324831187725067,0.0,0.0,0.10566651821136475,0.10566651822689808,0.0,0.0,-2.384185791015625e-05,2.384185791015625e-05
46,2.25,0.0,0.0,0.23776641488075256,0.0,0.0,0.10566666722297668,0.10566666806123358,0.0,0.0,1.7881393432617188e-05,1.7881393432617188e-05
47,2.3,0.0,0.0,0.24304978549480438,0.0,0.0,0.10566696524620056,0.1056669633223905,0.0,0.0,-2.9802322387695312e-06,2.9802322387695312e-06
48,2.35,0.0,0.0,0.24833311140537262,0.0,0.0,0.10566696524620056,0.1056669633223905,0.0,0.0,8.940696716308594e-06,8.940696716308594e-06
49,2.4,0.0,0.0,0.25361648201942444,0.0,0.0,0.10566696524620056,0.1056669633223905,0.0,0.0,-8.940696716308594e-06,8.940696716308594e-06
50,2.45,0.0,0.0,0.2588998079299927,0.0,0.0,0.10566651821136475,0.10566651822689808,0.0,0.0,-8.940696716308594e-06,8.940696716308594e-06
51,2.5,0.0,0.0,0.2641831338405609,0.0,0.0,0.10566681623458862,0.10566681789535662,0.0,0.0,1.1920928955078125e-05,1.1920928955078125e-05
52,2.55,0.0,0.0,0.26946648955345154,0.0,0.0,0.1056671142578125,0.10566711315609487,0.0,0.0,5.9604644775390625e-06,5.9604644775390625e-06
53,2.6,0.0,0.0,0.27474984526634216,0.0,0.0,0.10566681623458862,0.10566681789535662,0.0,0.0,-1.1920928955078125e-05,1.1920928955078125e-05
54,2.65,0.0,0.0,0.2800331711769104,0.0,0.0,0.10566681623458862,0.10566681789535662,0.0,0.0,5.9604644775390625e-06,5.9604644775390625e-06
55,2.7,0.0,0.0,0.285316526889801,0.0,0.0,0.1056671142578125,0.10566711315609487,0.0,0.0,5.9604644775390625e-06,5.9604644775390625e-06
56,2.75,0.0,0.0,0.29059988260269165,0.0,0.0,0.10566681623458862,0.10566681789535662,0.0,0.0,-1.1920928955078125e-05,1.1920928955078125e-05
57,2.8,0.0,0.0,0.2958832085132599,0.0,0.0,0.10566681623458862,0.10566681789535662,0.0,0.0,5.9604644775390625e-06,5.9604644775390625e-06
58,2.85,0.0,0.0,0.3011665642261505,0.0,0.0,0.1056671142578125,0.10566711315609487,0.0,0.0,5.9604644775390625e-06,5.9604644775390625e-06
59,2.9,0.0,0.0,0.30644991993904114,0.0,0.0,0.10566681623458862,0.10566681789535662,0.0,0.0,-1.1920928955078125e-05,1.1920928955078125e-05
60,2.95,0.0,0.0,0.3117332458496094,0.0,0.0,0.10566651821136475,0.10566651822689808,0.0,0.0,-5.9604644775390625e-06,5.9604644775390625e-06
61,3.0,0.0,0.0,0.3170165717601776,0.0,0.0,0.10566681623458862,0.10566681789535662,0.0,0.0,1.1920928955078125e-05,1.1920928955078125e-05
62,3.05,0.0,0.0,0.32229992747306824,0.0,0.0,0.1056671142578125,0.10566711315609487,0.0,0.0,5.9604644775390625e-06,5.9604644775390625e-06
63,3.1,0.0,0.0,0.32758328318595886,0.0,0.0,0.10566681623458862,0.10566681789535662,0.0,0.0,-1.1920928955078125e-05,1.1920928955078125e-05
64,3.15,0.0,0.0,0.3328666090965271,0.0,0.0,0.10566681623458862,0.10566681789535662,0.0,0.0,5.9604644775390625e-06,5.9604644775390625e-06
65,3.2,0.0,0.0,0.3381499648094177,0.0,0.0,0.10566681623458862,0.10566681789535662,0.0,0.0,-5.9604644775390625e-06,5.9604644775390625e-06
66,3.25,0.0,0.0,0.34343329071998596,0.0,0.0,0.10566651821136475,0.10566651822689808,0.0,0.0,-5.9604644775390625e-06,5.9604644775390625e-06
67,3.3,0.0,0.0,0.3487166166305542,0.0,0.0,0.1056671142578125,0.10566711315609487,0.0,0.0,2.384185791015625e-05,2.384185791015625e-05
68,3.35,0.0,0.0,0.3540000021457672,0.0,0.0,0.10566681623458862,0.10566681789535662,0.0,0.0,-2.384185791015625e-05,2.384185791015625e-05
69,3.4,0.0,0.0,0.35928329825401306,0.0,0.0,0.10566681623458862,0.10566681789535662,0.0,0.0,1.7881393432617188e-05,1.7881393432617188e-05
70,3.45,0.0,0.0,0.3645666837692261,0.0,0.0,0.10566741228103638,0.10566741282286622,0.0,0.0,5.9604644775390625e-06,5.9604644775390625e-06
71,3.5,0.0,0.0,0.3698500394821167,0.0,0.0,0.10566651821136475,0.10566651822689808,0.0,0.0,-2.9802322387695312e-05,2.9802322387695312e-05
72,3.55,0.0,0.0,0.37513333559036255,0.0,0.0,0.10566651821136475,0.10566651822689808,0.0,0.0,1.1920928955078125e-05,1.1920928955078125e-05
73,3.6,0.0,0.0,0.3804166913032532,0.0,0.0,0.1056671142578125,0.10566711315609487,0.0,0.0,1.1920928955078125e-05,1.1920928955078125e-05
74,3.65,0.0,0.0,0.3857000470161438,0.0,0.0,0.1056671142578125,0.10566711315609487,0.0,0.0,0.0,0.0
75,3.7,0.0,0.0,0.3909834027290344,0.0,0.0,0.10566681623458862,0.10566681789535662,0.0,0.0,-1.1920928955078125e-05,1.1920928955078125e-05
76,3.75,0.0,0.0,0.39626672863960266,0.007975228130817413,0.0,0.07687389850616455,0.07728648241884627,0.31900912523269653,0.0,-1.1517107486724854,1.195075067612365
77,3.8,0.0007975228363648057,0.0,0.3986707925796509,0.03515823930501938,0.0,-0.021263957023620605,0.04108841325471746,0.9278159141540527,0.0,-3.3496618270874023,3.4757842660874982
78,3.85,0.003515823744237423,0.0,0.3941403329372406,0.05436522886157036,0.0,-0.09060889482498169,0.10566716493681096,0.38412392139434814,0.0,-1.3868927955627441,1.4391048481081234
79,3.9,0.00623404560610652,0.0,0.3896099030971527,0.054364994168281555,0.0,-0.09060859680175781,0.10566678925061423,6.4820051193237305e-06,0.0,5.9604644775390625e-06,8.805880260084397e-06
80,3.95,0.008952323347330093,0.0,0.3850794732570648,0.05436515808105469,0.0,-0.09060829877853394,0.10566661738199683,-4.6193599700927734e-06,0.0,1.1920928955078125e-05,1.2784640537978201e-05
81,4.0,0.011670561507344246,0.0,0.3805490732192993,0.05436502397060394,0.0,-0.09060829877853394,0.105666549075161,2.5331974029541016e-06,0.0,-5.9604644775390625e-06,6.47643620136402e-06
82,4.05,0.014388825744390488,0.0,0.3760186433792114,0.054365452378988266,0.0,-0.09060889482498169,0.10566728061704245,1.1920928955078125e-05,0.0,-1.7881393432617188e-05,2.1490760299348767e-05
83,4.1,0.017107106745243073,0.0,0.37148818373680115,0.05436509847640991,0.0,-0.09060889482498169,0.10566709773204688,-1.7508864402770996e-05,0.0,5.9604644775390625e-06,1.849560676113726e-05
84,4.15,0.01982533559203148,0.0,0.36695775389671326,0.05436481907963753,0.0,-0.09060829877853394,0.10566644330965067,-7.450580596923828e-07,0.0,1.7881393432617188e-05,1.7896908744371405e-05
85,4.2,0.022543588653206825,0.0,0.36242735385894775,0.054365284740924835,0.0,-0.09060829877853394,0.10566668238362217,1.3783574104309082e-05,0.0,-5.9604644775390625e-06,1.5017125286717992e-05
86,4.25,0.025261864066123962,0.0,0.35789692401885986,0.05436509847640991,0.0,-0.09060859680175781,0.10566684213320951,-1.1920928955078125e-05,0.0,-5.9604644775390625e-06,1.3328003749250112e-05
87,4.3,0.027980098500847816,0.0,0.353366494178772,0.054364800453186035,0.0,-0.09060829877853394,0.10566643339412864,-3.725290298461914e-06,0.0,1.1920928955078125e-05,1.2489448945403255e-05
88,4.35,0.030698344111442566,0.0,0.34883609414100647,0.054365117102861404,0.0,-0.09060829877853394,0.1056665964492615,1.043081283569336e-05,0.0,-5.9604644775390625e-06,1.2013700229374393e-05
89,4.4,0.03341661021113396,0.0,0.3443056643009186,0.05436550825834274,0.0,-0.09060949087142944,0.10566782045644825,1.1548399925231934e-05,0.0,-4.172325134277344e-05,4.3291976663642216e-05
90,4.45,0.03613489493727684,0.0,0.3397751450538635,0.05436539649963379,0.0,-0.09060889482498169,0.10566725197242549,-8.195638656616211e-06,0.0,4.172325134277344e-05,4.252056203299843e-05
91,4.5,0.038853149861097336,0.0,0.3352447748184204,0.05436498671770096,0.0,-0.09060800075531006,0.10566627364392336,-1.043081283569336e-05,0.0,5.9604644775390625e-06,1.2013700229374393e-05
92,4.55,0.041571393609046936,0.0,0.3307143449783325,0.05436506122350693,0.0,-0.09060859680175781,0.10566682340396004,5.21540641784668e-06,0.0,-1.1920928955078125e-05,1.301187962038292e-05
93,4.6,0.04428965598344803,0.0,0.32618391513824463,0.0543651357293129,0.0,-0.09060859680175781,0.1056668619641759,-7.450580596923828e-07,0.0,0.0,7.450580596923828e-07
94,4.65,0.047007907181978226,0.0,0.32165348529815674,0.054365359246730804,0.0,-0.09060889482498169,0.10566723214153229,1.1175870895385742e-05,0.0,-1.1920928955078125e-05,1.6340398937062404e-05
95,4.7,0.04972619190812111,0.0,0.31712302565574646,0.054365433752536774,0.0,-0.09060919284820557,0.10566752629939971,-3.725290298461914e-06,0.0,-5.9604644775390625e-06,7.028863677424642e-06
96,4.75,0.0524444505572319,0.0,0.3125925660133362,0.05436450242996216,0.0,-0.09060770273208618,0.10566576905203359,-3.203749656677246e-05,0.0,5.9604644775390625e-05,6.766915741359913e-05
97,4.8,0.055162642151117325,0.0,0.30806225538253784,0.054364800453186035,0.0,-0.09060800075531006,0.10566617779368427,2.5331974029541016e-05,0.0,-4.172325134277344e-05,4.881125496077299e-05
98,4.85,0.05788093060255051,0.0,0.3035317659378052,0.05436547100543976,0.0,-0.09060919284820557,0.10566754502852459,7.450580596923828e-06,0.0,-1.1920928955078125e-05,1.4057727354849284e-05
99,4.9,0.0605991892516613,0.0,0.2990013360977173,0.05436509847640991,0.0,-0.09060829877853394,0.10566658653375385,-8.940696716308594e-06,0.0,2.384185791015625e-05,2.5463115409962925e-05
100,4.95,0.0633174404501915,0.0,0.2944709360599518,0.0543651357293129,0.0,-0.09060829877853394,0.10566660636476823,2.9802322387695312e-06,0.0,-5.9604644775390625e-06,6.664001874625056e-06
101,5.0,0.06603570282459259,0.0,0.2899405062198639,0.05436524748802185,0.0,-0.09060889482498169,0.10566717485226433,2.2351741790771484e-06,0.0,-1.7881393432617188e-05,1.802055034406159e-05
102,5.05,0.06875396519899368,0.0,0.2854100465774536,0.05436524748802185,0.0,-0.09060889482498169,0.10566717485226433,0.0,0.0,5.9604644775390625e-06,5.9604644775390625e-06
103,5.1,0.07147222757339478,0.0,0.2808796167373657,0.05436524748802185,0.0,-0.09060859680175781,0.1056669192536135,0.0,0.0,5.9604644775390625e-06,5.9604644775390625e-06
104,5.15,0.07419048994779587,0.0,0.27634918689727783,0.0543646514415741,0.0,-0.09060800075531006,0.10566610177446731,-2.384185791015625e-05,0.0,2.384185791015625e-05,3.371747880871523e-05
105,5.2,0.07690869271755219,0.0,0.2718188166618347,0.05436509847640991,0.0,-0.09060859680175781,0.10566684213320951,2.9802322387695312e-05,0.0,-3.5762786865234375e-05,4.655271575395259e-05
106,5.25,0.07962699979543686,0.0,0.26728832721710205,0.054365918040275574,0.0,-0.09060949087142944,0.10566803088289817,1.1920928955078125e-05,0.0,-1.1920928955078125e-05,1.6858739404357613e-05
107,5.3,0.08234528452157974,0.0,0.2627578675746918,0.05436547100543976,0.0,-0.09060889482498169,0.10566728943076917,-1.341104507446289e-05,0.0,1.7881393432617188e-05,2.2351741790771484e-05
108,5.35,0.08506354689598083,0.0,0.2582274377346039,0.054364874958992004,0.0,-0.09060829877853394,0.10566647195448683,-1.9371509552001953e-05,0.0,1.7881393432617188e-05,2.6362845320931274e-05
109,5.4,0.08778177201747894,0.0,0.2536970376968384,0.054364949464797974,0.0,-0.09060829877853394,0.10566651051483095,1.043081283569336e-05,0.0,-5.9604644775390625e-06,1.2013700229374393e-05
110,5.45,0.09050004184246063,0.0,0.2491666078567505,0.05436547100543976,0.0,-0.09060874581336975,0.10566716163165962,1.1920928955078125e-05,0.0,-1.1920928955078125e-05,1.6858739404357613e-05
111,5.5,0.09321831911802292,0.0,0.2446361631155014,0.05436532199382782,0.0,-0.09060889482498169,0.10566721341235194,-7.450580596923828e-06,0.0,-2.9802322387695312e-06,8.024520884654677e-06
112,5.55,0.09593657404184341,0.0,0.24010571837425232,0.054364800453186035,0.0,-0.09060829877853394,0.10566643339412864,-1.6391277313232422e-05,0.0,2.384185791015625e-05,2.893282151065409e-05
113,5.6,0.09865479916334152,0.0,0.235575333237648,0.054364874958992004,0.0,-0.09060829877853394,0.10566647195448683,8.940696716308594e-06,0.0,-1.1920928955078125e-05,1.4901161193847656e-05
114,5.65,0.10137306153774261,0.0,0.23104488849639893,0.05436524748802185,0.0,-0.09060874581336975,0.1056670470530162,7.450580596923828e-06,0.0,-5.9604644775390625e-06,9.541398640621973e-06
115,5.7,0.10409132391214371,0.0,0.22651445865631104,0.05436524748802185,0.0,-0.09060859680175781,0.1056669192536135,0.0,0.0,2.9802322387695312e-06,2.9802322387695312e-06
116,5.75,0.1068095862865448,0.0,0.22198402881622314,0.05436524748802185,0.0,-0.09060874581336975,0.1056670470530162,0.0,0.0,-5.9604644775390625e-06,5.9604644775390625e-06
117,5.8,0.10952784866094589,0.0,0.21745358407497406,0.05436517298221588,0.0,-0.09060889482498169,0.10566713629216264,-2.9802322387695312e-06,0.0,-2.9802322387695312e-06,4.214684851089403e-06
118,5.85,0.11224610358476639,0.0,0.21292313933372498,0.054364874958992004,0.0,-0.09060844779014587,0.10566659975443052,-1.043081283569336e-05,0.0,1.7881393432617188e-05,2.0701354726329155e-05
119,5.9,0.11496433615684509,0.0,0.20839273929595947,0.05436502397060394,0.0,-0.09060829877853394,0.105666549075161,1.043081283569336e-05,0.0,-2.9802322387695312e-06,1.0848209096909341e-05
120,5.95,0.11768260598182678,0.0,0.20386230945587158,0.05436539649963379,0.0,-0.09060859680175781,0.10566699637396121,7.450580596923828e-06,0.0,-5.9604644775390625e-06,9.541398640621973e-06
121,6.0,0.12040087580680847,0.0,0.1993318796157837,0.054364949464797974,0.0,-0.090608149766922,0.10566638271477932,-1.7881393432617188e-05,0.0,1.7881393432617188e-05,2.528810910653642e-05
122,6.05,0.12311910092830658,0.0,0.19480149447917938,0.05436524748802185,0.0,-0.09060889482498169,0.10566717485226433,2.086162567138672e-05,0.0,-3.8743019104003906e-05,4.400260168383539e-05
123,6.1,0.12583740055561066,0.0,0.19027099013328552,0.05436539649963379,0.0,-0.09060859680175781,0.10566699637396121,-8.940696716308594e-06,0.0,3.5762786865234375e-05,3.686343692795331e-05
124,6.15,0.12855564057826996,0.0,0.1857406347990036,0.054364949464797974,0.0,-0.09060800075531006,0.10566625491457314,-5.9604644775390625e-06,0.0,-5.9604644775390625e-06,8.429369702178807e-06
125,6.2,0.13127389550209045,0.0,0.18121019005775452,0.05436524748802185,0.0,-0.09060889482498169,0.10566717485226433,8.940696716308594e-06,0.0,-1.7881393432617188e-05,1.999200562387517e-05
126,6.25,0.13399216532707214,0.0,0.17667974531650543,0.05436509847640991,0.0,-0.09060844779014587,0.10566671433355897,-8.940696716308594e-06,0.0,1.7881393432617188e-05,1.999200562387517e-05
127,6.3,0.13671040534973145,0.0,0.17214934527873993,0.054364949464797974,0.0,-0.09060859680175781,0.10566676611447048,0.0,0.0,-1.4901161193847656e-05,1.4901161193847656e-05
128,6.35,0.13942866027355194,0.0,0.16761888563632965,0.05436524748802185,0.0,-0.09060904383659363,0.10566730265135789,8.940696716308594e-06,0.0,-5.9604644775390625e-06,1.0745380149674383e-05
129,6.4,0.14214693009853363,0.0,0.16308844089508057,0.05436539649963379,0.0,-0.09060874581336975,0.10566712417327064,2.9802322387695312e-06,0.0,8.940696716308594e-06,9.424321830774485e-06
130,6.45,0.14486519992351532,0.0,0.15855801105499268,0.05436524748802185,0.0,-0.09060874581336975,0.1056670470530162,-5.9604644775390625e-06,0.0,-2.9802322387695312e-06,6.664001874625056e-06
131,6.5,0.14758345484733582,0.0,0.1540275663137436,0.054364800453186035,0.0,-0.090608149766922,0.10566630559398374,-1.4901161193847656e-05,0.0,2.682209014892578e-05,3.068336886461675e-05
132,6.55,0.15030167996883392,0.0,0.14949719607830048,0.054364800453186035,0.0,-0.090608149766922,0.10566630559398374,5.9604644775390625e-06,0.0,-1.4901161193847656e-05,1.6049041769309354e-05
133,6.6,0.15301993489265442,0.0,0.1449667513370514,0.05436509847640991,0.0,-0.09060874581336975,0.10566696993270548,5.9604644775390625e-06,0.0,-8.940696716308594e-06,1.0745380149674383e-05
134,6.65,0.15573818981647491,0.0,0.1404363214969635,0.05436524748802185,0.0,-0.09060889482498169,0.10566717485226433,5.9604644775390625e-06,0.0,-8.940696716308594e-06,1.0745380149674383e-05
135,6.7,0.1584564596414566,0.0,0.13590586185455322,0.05436539649963379,0.0,-0.09060904383659363,0.10566737977142578,2.9802322387695312e-06,0.0,0.0,2.9802322387695312e-06
136,6.75,0.1611747294664383,0.0,0.13137541711330414,0.05436539649963379,0.0,-0.09060859680175781,0.10566699637396121,0.0,0.0,1.4901161193847656e-05,1.4901161193847656e-05
137,6.8,0.16389299929141998,0.0,0.12684500217437744,0.0543646514415741,0.0,-0.09060755372047424,0.10566571837236566,-2.9802322387695312e-05,0.0,3.5762786865234375e-05,4.655271575395259e-05
138,6.85,0.1666111946105957,0.0,0.12231466174125671,0.0543646514415741,0.0,-0.09060785174369812,0.10566597397392133,1.4901161193847656e-05,0.0,-2.682209014892578e-05,3.068336886461675e-05
139,6.9,0.1693294644355774,0.0,0.11778421700000763,0.054365694522857666,0.0,-0.09060949087142944,0.1056679163051973,2.682209014892578e-05,0.0,-4.470348358154297e-05,5.213277245919675e-05
140,6.95,0.17204776406288147,0.0,0.11325371265411377,0.05436554551124573,0.0,-0.09060956537723541,0.10566790528810413,-1.1920928955078125e-05,0.0,8.940696716308594e-06,1.4901161193847656e-05
141,7.0,0.17476601898670197,0.0,0.10872326046228409,0.054364949464797974,0.0,-0.090608149766922,0.10566638271477932,-1.4901161193847656e-05,0.0,4.6193599700927734e-05,4.853754483134249e-05
142,7.05,0.17748425900936127,0.0,0.10419289767742157,0.0543646514415741,0.0,-0.09060733020305634,0.10566552887426146,-8.940696716308594e-06,0.0,1.4901161193847656e-05,1.737759081973225e-05
143,7.1,0.18020248413085938,0.0,0.09966252744197845,0.054364800453186035,0.0,-0.09060807526111603,0.10566624389730675,8.940696716308594e-06,0.0,-2.8312206268310547e-05,2.9690353341655843e-05
144,7.15,0.18292073905467987,0.0,0.09513209015130997,0.05436539649963379,0.0,-0.09060919284820557,0.1056675075702715,1.7881393432617188e-05,0.0,-3.129243850708008e-05,3.604110068812318e-05
145,7.2,0.18563902378082275,0.0,0.0906016081571579,0.05436509847640991,0.0,-0.09060852229595184,0.10566678043684578,-1.7881393432617188e-05,0.0,3.5762786865234375e-05,3.998401124775034e-05
146,7.25,0.18835724890232086,0.0,0.08607123792171478,0.054364949464797974,0.0,-0.09060800075531006,0.10566625491457314,5.9604644775390625e-06,0.0,-1.4901161193847656e-06,6.143906154658885e-06
147,7.3,0.19107551872730255,0.0,0.08154080808162689,0.05436524748802185,0.0,-0.09060852229595184,0.10566685755729481,2.9802322387695312e-06,0.0,-8.940696716308594e-06,9.424321830774485e-06
148,7.35,0.19379377365112305,0.0,0.0770103856921196,0.054364800453186035,0.0,-0.09060807526111603,0.10566624389730675,-1.4901161193847656e-05,0.0,1.6391277313232422e-05,2.2152168672261394e-05
149,7.4,0.19651199877262115,0.0,0.07248000055551529,0.05436524748802185,0.0,-0.09060882031917572,0.10566711315609487,2.384185791015625e-05,0.0,-3.725290298461914e-05,4.422909641163298e-05
150,7.45,0.19923029839992523,0.0,0.06794950366020203,0.05436524748802185,0.0,-0.09060867130756378,0.10566698535677212,-1.4901161193847656e-05,0.0,2.8312206268310547e-05,3.1994149913763836e-05
151,7.5,0.20194852352142334,0.0,0.06341913342475891,0.0543646514415741,0.0,-0.09060800075531006,0.10566610177446731,-8.940696716308594e-06,0.0,1.4901161193847656e-06,9.064022496787041e-06
152,7.55,0.20466676354408264,0.0,0.05888870358467102,0.05436509847640991,0.0,-0.09060874581336975,0.10566696993270548,1.4901161193847656e-05,0.0,-1.7881393432617188e-05,2.3276357876976296e-05
153,7.6,0.20738503336906433,0.0,0.054358258843421936,0.05436509847640991,0.0,-0.09060829877853394,0.10566658653375385,-5.9604644775390625e-06,0.0,2.086162567138672e-05,2.1696418193818682e-05
154,7.65,0.21010327339172363,0.0,0.04982787370681763,0.05436524748802185,0.0,-0.0906086340546608,0.10566695010175933,1.1920928955078125e-05,0.0,-2.5331974029541016e-05,2.7996740084969902e-05
155,7.7,0.21282155811786652,0.0,0.045297395437955856,0.05436539649963379,0.0,-0.09060904383659363,0.10566737977142578,-2.9802322387695312e-06,0.0,2.2351741790771484e-06,3.725290298461914e-06
156,7.75,0.215539813041687,0.0,0.040766969323158264,0.054364800453186035,0.0,-0.09060796350240707,0.10566614694531297,-1.7881393432617188e-05,0.0,3.2782554626464844e-05,3.7342202920143805e-05
157,7.8,0.21825803816318512,0.0,0.03623659908771515,0.054364800453186035,0.0,-0.09060792624950409,0.10566611609693266,5.9604644775390625e-06,0.0,-9.685754776000977e-06,1.1372817696983924e-05
158,7.85,0.22097629308700562,0.0,0.031706176698207855,0.054364949464797974,0.0,-0.09060828387737274,0.10566649729414312,0.0,0.0,-3.725290298461914e-06,3.725290298461914e-06
159,7.9,0.22369453310966492,0.0,0.027175771072506905,0.05436539649963379,0.0,-0.09060889482498169,0.10566725197242549,2.086162567138672e-05,0.0,-2.7865171432495117e-05,3.4809125306669275e-05
160,7.95,0.226412832736969,0.0,0.022645287215709686,0.054365694522857666,0.0,-0.09060937911272049,0.10566781935473799,0.0,0.0,-3.725290298461914e-06,3.725290298461914e-06
161,8.0,0.22913110256195068,0.0,0.018114833161234856,0.054364949464797974,0.0,-0.09060846269130707,0.10566665153539818,-2.384185791015625e-05,0.0,3.0547380447387695e-05,3.8750182461577185e-05
162,8.05,0.2318493276834488,0.0,0.01358444057404995,0.054364800453186035,0.0,-0.09060806035995483,0.10566623067658557,2.9802322387695312e-06,0.0,4.023313522338867e-06,5.006878857735229e-06
163,8.1,0.2345675826072693,0.0,0.009054027497768402,0.05436524748802185,0.0,-0.09060893952846527,0.10566721451406853,1.1920928955078125e-05,0.0,-3.129243850708008e-05,3.348619498944913e-05
164,8.15,0.23728585243225098,0.0,0.004523546434938908,0.05432426929473877,0.0,-0.09045981615781784,0.10551826652468231,-0.0016421079635620117,0.0,0.005978494882583618,0.006199912755981519
165,8.2,0.24000000953674316,0.0,8.045564754866064e-06,0.027141422033309937,0.0,0.007677185349166393,0.028206310431316967,-1.086491346359253,0.0,3.9224839210510254,4.070177379862156
166,8.25,0.23999999463558197,0.0,0.005291264969855547,-2.980232238769531e-07,0.0,0.10566528886556625,0.1056652886963637,-0.5428344011306763,0.0,1.959780216217041,2.0335701896014906
167,8.3,0.23999997973442078,0.0,0.010574574582278728,1.4901161193847656e-07,0.0,0.10566584765911102,0.10566584837678751,1.7881393432617188e-05,0.0,4.023313522338867e-06,1.8328428268432617e-05
168,8.35,0.24000000953674316,0.0,0.015857849270105362,0.0,0.0,0.10566658526659012,0.10566658433030758,-1.4901161193847656e-05,0.0,3.650784492492676e-05,3.943180627345813e-05
169,8.4,0.23999997973442078,0.0,0.021141232922673225,0.0,0.0,0.10566733777523041,0.10566733790625306,1.1920928955078125e-05,0.0,8.344650268554688e-06,1.4551348228137139e-05
170,8.45,0.24000000953674316,0.0,0.026424583047628403,2.980232238769531e-07,0.0,0.1056661307811737,0.10566613041981635,0.0,0.0,-4.172325134277344e-05,4.172325134277344e-05
171,8.5,0.24000000953674316,0.0,0.031707845628261566,-2.980232238769531e-07,0.0,0.10566715151071548,0.1056671528183425,-1.7881393432617188e-05,0.0,5.841255187988281e-05,6.108821857127646e-05
172,8.55,0.23999997973442078,0.0,0.03699129819869995,-2.980232238769531e-07,0.0,0.10566718876361847,0.10566718807328765,5.9604644775390625e-06,0.0,-3.650784492492676e-05,3.699121352227452e-05
173,8.6,0.23999997973442078,0.0,0.04227456450462341,2.980232238769531e-07,0.0,0.10566588491201401,0.1056658836324831,1.7881393432617188e-05,0.0,-1.4901161193847656e-05,2.3276357876976296e-05
174,8.65,0.24000000953674316,0.0,0.04755788668990135,1.4901161193847656e-07,0.0,0.10566826909780502,0.1056682677499717,-1.1920928955078125e-05,0.0,8.419156074523926e-05,8.503133215392625e-05
175,8.7,0.23999999463558197,0.0,0.052841391414403915,-2.980232238769531e-07,0.0,0.10566830635070801,0.1056683074116809,-8.940696716308594e-06,0.0,-3.501772880554199e-05,3.6141076194151945e-05
176,8.75,0.23999997973442078,0.0,0.05812471732497215,-1.4901161193847656e-07,0.0,0.10566603392362595,0.10566603346740325,5.9604644775390625e-06,0.0,-5.513429641723633e-05,5.545554776766418e-05
177,8.8,0.23999997973442078,0.0,0.06340799480676651,2.980232238769531e-07,0.0,0.10566707700490952,0.105667077901545,1.4901161193847656e-05,0.0,5.1409006118774414e-05,5.352504567999187e-05
178,8.85,0.24000000953674316,0.0,0.0686914250254631,1.4901161193847656e-07,0.0,0.10566651821136475,0.10566651822700315,-1.1920928955078125e-05,0.0,-5.289912223815918e-05,5.422569207229841e-05
179,8.9,0.23999999463558197,0.0,0.07397464662790298,0.0,0.0,0.10566644370555878,0.10566644330965067,2.9802322387695312e-06,0.0,3.8743019104003906e-05,3.8857474358097606e-05
180,8.95,0.24000000953674316,0.0,0.07925806939601898,1.4901161193847656e-07,0.0,0.10566793382167816,0.10566793283093998,0.0,0.0,1.9371509552001953e-05,1.9371509552001953e-05
181,9.0,0.24000000953674316,0.0,0.0845414400100708,-1.4901161193847656e-07,0.0,0.10566666722297668,0.10566666806133865,-8.940696716308594e-06,0.0,-4.023313522338867e-05,4.121457542758981e-05
182,9.05,0.23999999463558197,0.0,0.08982473611831665,-1.4901161193847656e-07,0.0,0.10566726326942444,0.10566726298969184,2.9802322387695312e-06,0.0,3.8743019104003906e-05,3.8857474358097606e-05
183,9.1,0.23999999463558197,0.0,0.09510816633701324,-1.4901161193847656e-07,0.0,0.10566659271717072,0.10566659314419746,-2.9802322387695312e-06,0.0,-5.364418029785156e-05,5.372690074837192e-05
184,9.15,0.23999997973442078,0.0,0.10039139539003372,-1.4901161193847656e-07,0.0,0.10566651821136475,0.10566651822700315,2.9802322387695312e-06,0.0,3.725290298461914e-05,3.737192214722768e-05
185,9.2,0.23999997973442078,0.0,0.10567481815814972,2.980232238769531e-07,0.0,0.10566785931587219,0.10566785791501068,1.4901161193847656e-05,0.0,1.4901161193847656e-05,2.1073424255447017e-05
186,9.25,0.24000000953674316,0.0,0.11095818132162094,1.4901161193847656e-07,0.0,0.10566651821136475,0.10566651822700315,-1.1920928955078125e-05,0.0,-4.172325134277344e-05,4.3392836387637365e-05
187,9.3,0.23999999463558197,0.0,0.1162414699792862,-1.4901161193847656e-07,0.0,0.10566703975200653,0.10566703823937432,-2.9802322387695312e-06,0.0,3.5762786865234375e-05,3.5886748369909216e-05
188,9.35,0.23999999463558197,0.0,0.1215248852968216,1.4901161193847656e-07,0.0,0.10566726326942444,0.10566726298969184,8.940696716308594e-06,0.0,-1.6391277313232422e-05,1.8671101460071903e-05
189,9.4,0.24000000953674316,0.0,0.12680819630622864,1.4901161193847656e-07,0.0,0.10566622018814087,0.10566621855769476,-2.9802322387695312e-06,0.0,-2.086162567138672e-05,2.1073424255447017e-05
190,9.45,0.24000000953674316,0.0,0.13209150731563568,0.0,0.0,0.10566666722297668,0.10566666806123358,-2.9802322387695312e-06,0.0,1.7881393432617188e-05,1.8128044993574082e-05
191,9.5,0.24000000953674316,0.0,0.1373748630285263,-1.4901161193847656e-07,0.0,0.10566741228103638,0.10566741282297129,-5.9604644775390625e-06,0.0,2.086162567138672e-05,2.1696418193818682e-05
192,9.55,0.23999999463558197,0.0,0.14265824854373932,-2.980232238769531e-07,0.0,0.10566756129264832,0.10566756265635348,-2.9802322387695312e-06,0.0,0.0,2.9802322387695312e-06
193,9.6,0.23999997973442078,0.0,0.14794161915779114,-1.4901161193847656e-07,0.0,0.10566636919975281,0.10566636839245519,5.9604644775390625e-06,0.0,-4.470348358154297e-05,4.509909734255539e-05
194,9.65,0.23999997973442078,0.0,0.1532248854637146,2.980232238769531e-07,0.0,0.10566756129264832,0.10566756265635348,1.4901161193847656e-05,0.0,6.854534149169922e-05,7.014633593523395e-05
195,9.7,0.24000000953674316,0.0,0.15850837528705597,2.980232238769531e-07,0.0,0.10566860437393188,0.10566860266825712,-5.9604644775390625e-06,0.0,-2.9802322387695312e-06,6.664001874625056e-06
196,9.75,0.24000000953674316,0.0,0.1637917459011078,0.0,0.0,0.10566607117652893,0.10566607312953079,-5.9604644775390625e-06,0.0,-7.748603820800781e-05,7.771494871619521e-05
197,9.8,0.24000000953674316,0.0,0.16907498240470886,0.0,0.0,0.10566592216491699,0.10566592329435168,0.0,0.0,2.086162567138672e-05,2.086162567138672e-05
198,9.85,0.24000000953674316,0.0,0.1743583381175995,-1.4901161193847656e-07,0.0,0.1056671142578125,0.10566711315619993,-5.9604644775390625e-06,0.0,2.384185791015625e-05,2.457562461863554e-05
199,9.9,0.23999999463558197,0.0,0.1796416938304901,0.0,0.0,0.1056671142578125,0.10566711315609487,8.940696716308594e-06,0.0,0.0,8.940696716308594e-06
200,9.95,0.24000000953674316,0.0,0.18492504954338074,1.4901161193847656e-07,0.0,0.10566726326942444,0.10566726298969184,0.0,0.0,5.9604644775390625e-06,5.9604644775390625e-06
201,10.0,0.24000000953674316,0.0,0.19020842015743256,0.0,0.0,0.10566756129264832,0.1056675626559332,-2.9802322387695312e-06,0.0,8.940696716308594e-06,9.424321830774485e-06
202,10.05,0.24000000953674316,0.0,0.19549180567264557,-1.4901161193847656e-07,0.0,0.10566636919975281,0.10566636839245519,-5.9604644775390625e-06,0.0,-5.066394805908203e-05,5.101335873789695e-05
203,10.1,0.23999999463558197,0.0,0.20077505707740784,0.0,0.0,0.10566622018814087,0.10566621855758969,8.940696716308594e-06,0.0,2.086162567138672e-05,2.269677253324958e-05
204,10.15,0.24000000953674316,0.0,0.20605842769145966,1.4901161193847656e-07,0.0,0.10566830635070801,0.1056683074113657,0.0,0.0,5.9604644775390625e-05,5.9604644775390625e-05
205,10.2,0.24000000953674316,0.0,0.21134188771247864,0.0,0.0,0.10566726326942444,0.10566726298958677,-2.9802322387695312e-06,0.0,-5.9604644775390625e-05,5.9679104073348005e-05
206,10.25,0.24000000953674316,0.0,0.2166251540184021,0.0,0.0,0.10566636919975281,0.10566636839235012,0.0,0.0,2.9802322387695312e-06,2.9802322387695312e-06
207,10.3,0.24000000953674316,0.0,0.22190852463245392,0.0,0.0,0.10566741228103638,0.10566741282286622,0.0,0.0,2.086162567138672e-05,2.086162567138672e-05
208,10.35,0.24000000953674316,0.0,0.22719189524650574,0.0,0.0,0.1056671142578125,0.10566711315609487,0.0,0.0,-1.1920928955078125e-05,1.1920928955078125e-05
209,10.4,0.24000000953674316,0.0,0.23247523605823517,0.0,0.0,0.10566562414169312,0.10566562362335603,0.0,0.0,-5.364418029785156e-05,5.364418029785156e-05
210,10.45,0.24000000953674316,0.0,0.23775845766067505,0.0,0.0,0.10566696524620056,0.1056669633223905,0.0,0.0,7.748603820800781e-05,7.748603820800781e-05
211,10.5,0.24000000953674316,0.0,0.24304193258285522,-1.4901161193847656e-07,0.0,0.10566830635070801,0.1056683074113657,-5.9604644775390625e-06,0.0,2.9802322387695312e-06,6.664001874625056e-06
212,10.55,0.23999999463558197,0.0,0.24832528829574585,-1.4901161193847656e-07,0.0,0.10566651821136475,0.10566651822700315,2.9802322387695312e-06,0.0,-4.76837158203125e-05,4.777675730550705e-05
213,10.6,0.23999999463558197,0.0,0.2536085844039917,1.4901161193847656e-07,0.0,0.10566771030426025,0.1056677124888928,8.940696716308594e-06,0.0,5.9604644775390625e-05,6.0271467018594396e-05
214,10.65,0.24000000953674316,0.0,0.2588920593261719,1.4901161193847656e-07,0.0,0.10566681623458862,0.10566681789546169,-2.9802322387695312e-06,0.0,-7.152557373046875e-05,7.158763497748562e-05
215,10.7,0.24000000953674316,0.0,0.26417526602745056,0.0,0.0,0.10566532611846924,0.10566532395151053,-2.9802322387695312e-06,0.0,-5.9604644775390625e-06,6.664001874625056e-06
216,10.75,0.24000000953674316,0.0,0.2694585919380188,0.0,0.0,0.10566830635070801,0.10566830741126064,0.0,0.0,9.5367431640625e-05,9.5367431640625e-05
217,10.8,0.24000000953674316,0.0,0.27474209666252136,-1.4901161193847656e-07,0.0,0.10566771030426025,0.1056677124888928,-5.9604644775390625e-06,0.0,-5.9604644775390625e-05,5.9901926643376887e-05
218,10.85,0.23999999463558197,0.0,0.2800253629684448,0.0,0.0,0.10566502809524536,0.10566502868577268,8.940696716308594e-06,0.0,-5.9604644775390625e-05,6.0271467018594396e-05
219,10.9,0.24000000953674316,0.0,0.2853085994720459,1.4901161193847656e-07,0.0,0.10566771030426025,0.1056677124888928,0.0,0.0,0.00011324882507324219,0.00011324882507324219
220,10.95,0.24000000953674316,0.0,0.29059213399887085,-1.4901161193847656e-07,0.0,0.10566860437393188,0.10566860266794192,-8.940696716308594e-06,0.0,-2.384185791015625e-05,2.5463115409962925e-05
221,11.0,0.23999999463558197,0.0,0.2958754599094391,-2.980232238769531e-07,0.0,0.10566532611846924,0.1056653239519308,-2.9802322387695312e-06,0.0,-8.940696716308594e-05,8.945662391068717e-05
222,11.05,0.23999997973442078,0.0,0.3011586666107178,-1.4901161193847656e-07,0.0,0.10566532611846924,0.1056653239516156,5.9604644775390625e-06,0.0,2.384185791015625e-05,2.457562461863554e-05
223,11.1,0.23999997973442078,0.0,0.306441992521286,0.0,0.0,0.10566651821136475,0.10566651822689808,2.9802322387695312e-06,0.0,2.384185791015625e-05,2.4027400458748785e-05
224,11.15,0.23999997973442078,0.0,0.31172531843185425,0.0,0.0,0.10566622018814087,0.10566621855758969,0.0,0.0,-1.1920928955078125e-05,1.1920928955078125e-05
225,11.2,0.23999997973442078,0.0,0.3170086145401001,1.4901161193847656e-07,0.0,0.10566651821136475,0.10566651822700315,5.9604644775390625e-06,0.0,1.7881393432617188e-05,1.884864366154897e-05
226,11.25,0.23999999463558197,0.0,0.3222919702529907,1.4901161193847656e-07,0.0,0.1056671142578125,0.10566711315619993,-2.9802322387695312e-06,0.0,1.1920928955078125e-05,1.228781230931777e-05
227,11.3,0.23999999463558197,0.0,0.32757532596588135,1.4901161193847656e-07,0.0,0.10566681623458862,0.10566681789546169,2.9802322387695312e-06,0.0,-1.1920928955078125e-05,1.228781230931777e-05
228,11.35,0.24000000953674316,0.0,0.3328586518764496,1.4901161193847656e-07,0.0,0.10566592216491699,0.10566592329445675,-2.9802322387695312e-06,0.0,-2.9802322387695312e-05,2.9950963321688443e-05
229,11.4,0.24000000953674316,0.0,0.33814191818237305,0.0,0.0,0.10566741228103638,0.10566741282286622,-2.9802322387695312e-06,0.0,7.152557373046875e-05,7.158763497748562e-05
230,11.45,0.24000000953674316,0.0,0.3434253931045532,0.0,0.0,0.10566890239715576,0.10566890233038409,0.0,0.0,1.7881393432617188e-05,1.7881393432617188e-05
231,11.5,0.24000000953674316,0.0,0.3487088084220886,0.0,0.0,0.10566651821136475,0.10566651822689808,0.0,0.0,-8.344650268554688e-05,8.344650268554688e-05
232,11.55,0.24000000953674316,0.0,0.3539920449256897,-2.980232238769531e-07,0.0,0.10566741228103638,0.10566741282328648,-1.1920928955078125e-05,0.0,7.152557373046875e-05,7.251217997429633e-05
233,11.6,0.23999997973442078,0.0,0.35927554965019226,-1.4901161193847656e-07,0.0,0.10566741228103638,0.10566741282297129,1.1920928955078125e-05,0.0,-5.364418029785156e-05,5.495276723678641e-05
234,11.65,0.23999999463558197,0.0,0.36455878615379333,0.0,0.0,0.10566622018814087,0.10566621855758969,-2.9802322387695312e-06,0.0,5.9604644775390625e-06,6.664001874625056e-06
235,11.7,0.23999997973442078,0.0,0.36984217166900635,1.4901161193847656e-07,0.0,0.10566920042037964,0.10566920199218659,1.1920928955078125e-05,0.0,8.940696716308594e-05,9.019819468511079e-05
236,11.75,0.24000000953674316,0.0,0.3751257061958313,0.0,0.0,0.10566800832748413,0.10566800774702628,-1.4901161193847656e-05,0.0,-7.748603820800781e-05,7.890583452507095e-05
237,11.8,0.23999997973442078,0.0,0.38040897250175476,-2.980232238769531e-07,0.0,0.10566681623458862,0.1056668178957769,0.0,0.0,5.9604644775390625e-06,5.9604644775390625e-06
238,11.85,0.23999997973442078,0.0,0.38569238781929016,2.980232238769531e-07,0.0,0.10566800832748413,0.10566800774744654,1.7881393432617188e-05,0.0,1.7881393432617188e-05,2.528810910653642e-05
239,11.9,0.24000000953674316,0.0,0.3909757733345032,2.980232238769531e-07,0.0,0.10566622018814087,0.10566621855800996,-5.9604644775390625e-06,0.0,-6.556510925292969e-05,6.583548198453939e-05
240,11.95,0.24000000953674316,0.0,0.39625900983810425,-0.00793546438217163,0.0,0.07701694965362549,0.0774246879319185,-0.3174245357513428,0.0,-1.1459410190582275,1.189091729319928
241,12.0,0.239206463098526,0.0,0.3986774682998657,-0.03511697053909302,0.0,-0.0211179256439209,0.04097765700734963,-0.9285509586334229,0.0,-3.3524394035339355,3.4786572863923375
242,12.05,0.23648831248283386,0.0,0.39414721727371216,-0.05436420440673828,0.0,-0.09060680866241455,0.10566484910210325,-0.38496851921081543,0.0,-1.3898134231567383,1.4421449799639448
243,12.1,0.23377004265785217,0.0,0.38961678743362427,-0.05436524748802185,0.0,-0.09060859680175781,0.1056669192536135,-1.7881393432617188e-05,0.0,-3.5762786865234375e-05,3.998401124775034e-05
244,12.15,0.23105178773403168,0.0,0.3850863575935364,-0.05436524748802185,0.0,-0.09060889482498169,0.10566717485226433,-2.9802322387695312e-06,0.0,-1.1920928955078125e-05,1.228781230931777e-05
245,12.2,0.22833351790905,0.0,0.3805558979511261,-0.05436509847640991,0.0,-0.09060859680175781,0.10566684213320951,8.940696716308594e-06,0.0,1.7881393432617188e-05,1.999200562387517e-05
246,12.25,0.22561527788639069,0.0,0.3760254979133606,-0.05436539649963379,0.0,-0.09060919284820557,0.1056675075702715,-1.7881393432617188e-05,0.0,-3.5762786865234375e-05,3.998401124775034e-05
247,12.3,0.2228969782590866,0.0,0.37149497866630554,-0.05436509847640991,0.0,-0.09060859680175781,0.10566684213320951,2.384185791015625e-05,0.0,4.76837158203125e-05,5.331201499700045e-05
248,12.35,0.2201787680387497,0.0,0.3669646382331848,-0.05436524748802185,0.0,-0.09060889482498169,0.10566717485226433,-2.384185791015625e-05,0.0,-4.76837158203125e-05,5.331201499700045e-05
249,12.4,0.21746045351028442,0.0,0.3624340891838074,-0.05436524748802185,0.0,-0.09060859680175781,0.1056669192536135,2.086162567138672e-05,0.0,5.364418029785156e-05,5.755784486480941e-05
250,12.45,0.2147422432899475,0.0,0.35790377855300903,-0.0543646514415741,0.0,-0.09060770273208618,0.10566584617322078,2.9802322387695312e-06,0.0,-1.1920928955078125e-05,1.228781230931777e-05
251,12.5,0.21202398836612701,0.0,0.35337331891059875,-0.05436599254608154,0.0,-0.0906100869178772,0.10566858063379249,-4.470348358154297e-05,0.0,-6.556510925292969e-05,7.935480449017493e-05
252,12.55,0.20930564403533936,0.0,0.3488427698612213,-0.05436524748802185,0.0,-0.09060859680175781,0.1056669192536135,4.76837158203125e-05,0.0,7.748603820800781e-05,9.098254157587139e-05
253,12.6,0.20658746361732483,0.0,0.344312459230423,-0.05436420440673828,0.0,-0.0906074047088623,0.10566536030880179,8.940696716308594e-06,0.0,0.0,8.940696716308594e-06
254,12.65,0.20386922359466553,0.0,0.3397820293903351,-0.054364949464797974,0.0,-0.09060829877853394,0.10566651051483095,-1.7881393432617188e-05,0.0,-1.1920928955078125e-05,2.1490760299348767e-05
255,12.7,0.20115096867084503,0.0,0.3352516293525696,-0.0543646514415741,0.0,-0.09060710668563843,0.10566533496887284,1.4901161193847656e-05,0.0,4.172325134277344e-05,4.430433734452279e-05
256,12.75,0.19843275845050812,0.0,0.33072131872177124,-0.05436524748802185,0.0,-0.09060859680175781,0.1056669192536135,-3.2782554626464844e-05,0.0,-7.748603820800781e-05,8.413549788888159e-05
257,12.8,0.19571444392204285,0.0,0.3261907696723938,-0.054364949464797974,0.0,-0.09060859680175781,0.10566676611447048,3.2782554626464844e-05,0.0,4.76837158203125e-05,5.786564302130818e-05
258,12.85,0.19299626350402832,0.0,0.32166045904159546,-0.054364800453186035,0.0,-0.09060829877853394,0.10566643339412864,-2.086162567138672e-05,0.0,-3.5762786865234375e-05,4.140270945265831e-05
259,12.9,0.19027796387672424,0.0,0.3171299397945404,-0.05436539649963379,0.0,-0.09060949087142944,0.10566776316749926,0.0,0.0,-5.9604644775390625e-06,5.9604644775390625e-06
260,12.95,0.18755972385406494,0.0,0.3125995099544525,-0.05436450242996216,0.0,-0.0906074047088623,0.10566551344998222,2.384185791015625e-05,0.0,6.556510925292969e-05,6.976544803809897e-05
261,13.0,0.18484151363372803,0.0,0.3080691993236542,-0.05436539649963379,0.0,-0.09060859680175781,0.10566699637396121,-4.172325134277344e-05,0.0,-7.152557373046875e-05,8.280541890531662e-05
262,13.05,0.18212318420410156,0.0,0.30353865027427673,-0.054364949464797974,0.0,-0.09060800075531006,0.10566625491457314,4.172325134277344e-05,0.0,7.152557373046875e-05,8.280541890531662e-05
263,13.1,0.17940501868724823,0.0,0.29900839924812317,-0.05436509847640991,0.0,-0.09060800075531006,0.10566633093367993,-3.8743019104003906e-05,0.0,-5.9604644775390625e-05,7.10896279923711e-05
264,13.15,0.17668667435646057,0.0,0.2944778501987457,-0.0543665885925293,0.0,-0.09061098098754883,0.10566965368641663,-2.384185791015625e-05,0.0,-5.9604644775390625e-05,6.419616707723741e-05
265,13.2,0.1739683598279953,0.0,0.2899473011493683,-0.0543646514415741,0.0,-0.09060829877853394,0.10566635737509555,7.152557373046875e-05,0.0,0.00010728836059570312,0.00012894456179609261
266,13.25,0.17125020921230316,0.0,0.28541702032089233,-0.05436420440673828,0.0,-0.0906074047088623,0.10566536030880179,-1.4901161193847656e-05,0.0,-1.7881393432617188e-05,2.3276357876976296e-05
267,13.3,0.16853193938732147,0.0,0.28088656067848206,-0.05436539649963379,0.0,-0.09060889482498169,0.10566725197242549,-2.384185791015625e-05,0.0,-2.384185791015625e-05,3.371747880871523e-05
268,13.35,0.16581366956233978,0.0,0.27635613083839417,-0.05436524748802185,0.0,-0.09060889482498169,0.10566717485226433,5.9604644775390625e-06,0.0,-5.9604644775390625e-06,8.429369702178807e-06
269,13.4,0.1630954146385193,0.0,0.2718256711959839,-0.054365694522857666,0.0,-0.0906100869178772,0.10566842749705721,-2.086162567138672e-05,0.0,-4.172325134277344e-05,4.664801312237539e-05
270,13.45,0.16037710011005402,0.0,0.26729512214660645,-0.05436509847640991,0.0,-0.09060859680175781,0.10566684213320951,3.5762786865234375e-05,0.0,7.748603820800781e-05,8.534086384341927e-05
271,13.5,0.1576589047908783,0.0,0.2627648115158081,-0.0543646514415741,0.0,-0.09060710668563843,0.10566533496887284,-5.9604644775390625e-06,0.0,1.1920928955078125e-05,1.3328003749250112e-05
272,13.55,0.1549406349658966,0.0,0.2582344114780426,-0.05436450242996216,0.0,-0.0906074047088623,0.10566551344998222,2.086162567138672e-05,0.0,5.9604644775390625e-06,2.1696418193818682e-05
273,13.6,0.15222245454788208,0.0,0.2537040710449219,-0.054364949464797974,0.0,-0.09060859680175781,0.10566676611447048,-3.5762786865234375e-05,0.0,-5.9604644775390625e-05,6.9510363278929e-05
274,13.65,0.1495041400194168,0.0,0.24917355179786682,-0.054365694522857666,0.0,-0.09060949087142944,0.1056679163051973,-2.9802322387695312e-06,0.0,0.0,2.9802322387695312e-06
275,13.7,0.1467858850955963,0.0,0.24464312195777893,-0.05436450242996216,0.0,-0.09060725569725037,0.10566538564872467,3.5762786865234375e-05,0.0,7.152557373046875e-05,7.996802249550068e-05
276,13.75,0.1440676897764206,0.0,0.24011282622814178,-0.05436509847640991,0.0,-0.09060844779014587,0.10566671433355897,-3.5762786865234375e-05,0.0,-7.450580596923828e-05,8.264437093652515e-05
277,13.8,0.14134937524795532,0.0,0.23558227717876434,-0.05436524748802185,0.0,-0.09060889482498169,0.10566717485226433,1.7881393432617188e-05,0.0,3.2782554626464844e-05,3.7342202920143805e-05
278,13.85,0.1386311650276184,0.0,0.23105193674564362,-0.0543646514415741,0.0,-0.09060755372047424,0.10566571837236566,2.9802322387695312e-06,0.0,1.1920928955078125e-05,1.228781230931777e-05
279,13.9,0.1359129101037979,0.0,0.22652152180671692,-0.05436509847640991,0.0,-0.09060859680175781,0.10566684213320951,-8.940696716308594e-06,0.0,-2.682209014892578e-05,2.8272965492323453e-05
280,13.95,0.13319465517997742,0.0,0.22199107706546783,-0.05436509847640991,0.0,-0.09060874581336975,0.10566696993270548,0.0,0.0,0.0,0.0
281,14.0,0.13047640025615692,0.0,0.21746064722537994,-0.05436509847640991,0.0,-0.09060844779014587,0.10566671433355897,0.0,0.0,8.940696716308594e-06,8.940696716308594e-06
282,14.05,0.12775814533233643,0.0,0.21293023228645325,-0.05436524748802185,0.0,-0.09060874581336975,0.1056670470530162,-5.9604644775390625e-06,0.0,-1.4901161193847656e-05,1.6049041769309354e-05
283,14.1,0.12503987550735474,0.0,0.20839977264404297,-0.05436547100543976,0.0,-0.09060889482498169,0.10566728943076917,-5.9604644775390625e-06,0.0,2.9802322387695312e-06,6.664001874625056e-06
284,14.15,0.12232159823179245,0.0,0.20386934280395508,-0.05436554551124573,0.0,-0.09060889482498169,0.10566732799081498,-1.4901161193847656e-06,0.0,-5.9604644775390625e-06,6.143906154658885e-06
285,14.2,0.11960332095623016,0.0,0.1993388831615448,-0.054364725947380066,0.0,-0.090608149766922,0.10566626703356484,3.2782554626464844e-05,0.0,3.5762786865234375e-05,4.851466594964178e-05
286,14.25,0.11688512563705444,0.0,0.19480852782726288,-0.05436524748802185,0.0,-0.09060889482498169,0.10566717485226433,-3.725290298461914e-05,0.0,-5.066394805908203e-05,6.28857250392711e-05
287,14.3,0.11416679620742798,0.0,0.19027799367904663,-0.05436524748802185,0.0,-0.09060859680175781,0.1056669192536135,2.682209014892578e-05,0.0,4.76837158203125e-05,5.4709791394131835e-05
288,14.35,0.11144860088825226,0.0,0.1857476681470871,-0.05436450242996216,0.0,-0.0906074047088623,0.10566551344998222,2.9802322387695312e-06,0.0,5.9604644775390625e-06,6.664001874625056e-06
289,14.4,0.10873034596443176,0.0,0.1812172532081604,-0.054365694522857666,0.0,-0.0906093418598175,0.10566778850684591,-3.5762786865234375e-05,0.0,-5.9604644775390625e-05,6.9510363278929e-05
290,14.45,0.10601203143596649,0.0,0.17668673396110535,-0.05436502397060394,0.0,-0.09060844779014587,0.10566667687501141,3.8743019104003906e-05,0.0,5.6624412536621094e-05,6.86100985599836e-05
291,14.5,0.10329384356737137,0.0,0.1721564084291458,-0.05436442792415619,0.0,-0.0906074047088623,0.10566547488927423,-1.4901161193847656e-06,0.0,2.9802322387695312e-06,3.332000937312528e-06
292,14.55,0.10057558864355087,0.0,0.16762599349021912,-0.05436517298221588,0.0,-0.09060859680175781,0.10566688069341854,-1.6391277313232422e-05,0.0,-2.9802322387695312e-05,3.40125328615705e-05
293,14.6,0.09785732626914978,0.0,0.16309554874897003,-0.05436532199382782,0.0,-0.09060889482498169,0.10566721341235194,-4.470348358154297e-06,0.0,-5.9604644775390625e-06,7.450580596923828e-06
294,14.65,0.09513905644416809,0.0,0.15856510400772095,-0.05436532199382782,0.0,-0.09060889482498169,0.10566721341235194,1.4901161193847656e-06,0.0,0.0,1.4901161193847656e-06
295,14.7,0.092420794069767,0.0,0.15403465926647186,-0.05436524748802185,0.0,-0.09060889482498169,0.10566717485226433,1.4901161193847656e-06,0.0,0.0,1.4901161193847656e-06
296,14.75,0.0897025316953659,0.0,0.14950421452522278,-0.05436524748802185,0.0,-0.09060874581336975,0.1056670470530162,0.0,0.0,5.9604644775390625e-06,5.9604644775390625e-06
297,14.8,0.08698426932096481,0.0,0.1449737846851349,-0.05436420440673828,0.0,-0.09060680866241455,0.10566484910210325,4.172325134277344e-05,0.0,7.450580596923828e-05,8.539288510021211e-05
298,14.85,0.08426611125469208,0.0,0.14044353365898132,-0.054364949464797974,0.0,-0.090608149766922,0.10566638271477932,-5.066394805908203e-05,0.0,-8.940696716308594e-05,0.00010276400834063689
299,14.9,0.08154777437448502,0.0,0.1359129697084427,-0.054366812109947205,0.0,-0.09061142802238464,0.10567015275132709,-3.8743019104003906e-05,0.0,-6.854534149169922e-05,7.873681076540295e-05
300,14.95,0.07882943004369736,0.0,0.13138239085674286,-0.05436554551124573,0.0,-0.0906093418598175,0.10566771138707634,5.21540641784668e-05,0.0,8.64267349243164e-05,0.00010094368192219703
301,15.0,0.07611121982336044,0.0,0.12685203552246094,-0.0543646514415741,0.0,-0.09060777723789215,0.1056659122770507,8.940696716308594e-06,0.0,1.7881393432617188e-05,1.999200562387517e-05
302,15.05,0.07339296489953995,0.0,0.12232161313295364,-0.05436457693576813,0.0,-0.09060755372047424,0.10566567981173246,1.1920928955078125e-05,0.0,2.2351741790771484e-05,2.5331974029541016e-05
303,15.1,0.07067476212978363,0.0,0.11779128015041351,-0.05436532199382782,0.0,-0.09060889482498169,0.10566721341235194,-4.023313522338867e-05,0.0,-7.152557373046875e-05,8.206468709119776e-05
304,15.15,0.06795643270015717,0.0,0.11326072365045547,-0.05436606705188751,0.0,-0.09061023592948914,0.10566874699071385,-4.470348358154297e-06,0.0,-8.940696716308594e-06,9.996002811937585e-06
305,15.2,0.06523815542459488,0.0,0.1087302565574646,-0.05436502397060394,0.0,-0.09060822427272797,0.10566648737862616,3.129243850708008e-05,0.0,6.258487701416016e-05,6.997201968356309e-05
306,15.25,0.06251993030309677,0.0,0.10419990122318268,-0.0543656200170517,0.0,-0.0906093418598175,0.10566774994696816,-3.427267074584961e-05,0.0,-6.705522537231445e-05,7.530616979893015e-05
307,15.3,0.05980159342288971,0.0,0.09966932237148285,-0.05436491221189499,0.0,-0.09060829877853394,0.10566649068379859,5.066394805908203e-05,0.0,8.64267349243164e-05,0.00010018191524727113
308,15.35,0.05708343908190727,0.0,0.09513907134532928,-0.05436491221189499,0.0,-0.090608149766922,0.10566636288372298,-3.650784492492676e-05,0.0,-5.9604644775390625e-05,6.989661236328268e-05
309,15.4,0.05436510220170021,0.0,0.09060850739479065,-0.05436670035123825,0.0,-0.0906112790107727,0.10566996766792666,-3.501772880554199e-05,0.0,-6.258487701416016e-05,7.171546668310844e-05
310,15.45,0.05164676904678345,0.0,0.08607794344425201,-0.054364800453186035,0.0,-0.09060800075531006,0.10566617779368427,7.525086402893066e-05,0.0,0.00013113021850585938,0.0001511880509249823
311,15.5,0.04892862215638161,0.0,0.08154770731925964,-0.0543646514415741,0.0,-0.09060762822628021,0.10566578447627553,-3.129243850708008e-05,0.0,-5.066394805908203e-05,5.9548739202881116e-05
312,15.55,0.04621030390262604,0.0,0.07701718062162399,-0.054365359246730804,0.0,-0.09060896933078766,0.10566729824449517,5.9604644775390625e-06,0.0,4.470348358154297e-06,7.450580596923828e-06
313,15.6,0.04349208623170853,0.0,0.07248681038618088,-0.054364800453186035,0.0,-0.09060807526111603,0.10566624389730675,2.2351741790771484e-06,0.0,4.470348358154297e-06,4.998001405968792e-06
314,15.65,0.040773823857307434,0.0,0.06795637309551239,-0.054365843534469604,0.0,-0.09060971438884735,0.10566818622362115,-3.2782554626464844e-05,0.0,-5.21540641784668e-05,6.160147967515704e-05
315,15.7,0.038055501878261566,0.0,0.06342583894729614,-0.05436524748802185,0.0,-0.09060874581336975,0.1056670470530162,3.5762786865234375e-05,0.0,5.811452865600586e-05,6.823690618190355e-05
316,15.75,0.03533729910850525,0.0,0.058895498514175415,-0.054364949464797974,0.0,-0.09060822427272797,0.1056664488182736,-1.1920928955078125e-05,0.0,-1.7881393432617188e-05,2.1490760299348767e-05
317,15.8,0.03261900693178177,0.0,0.054365016520023346,-0.05436526611447334,0.0,-0.09060878306627274,0.10566708781658626,5.21540641784668e-06,0.0,5.9604644775390625e-06,7.920075813483186e-06
318,15.85,0.029900772497057915,0.0,0.04983462020754814,-0.05436483770608902,0.0,-0.09060811251401901,0.10566629457672264,5.587935447692871e-06,0.0,9.685754776000977e-06,1.1182077988835896e-05
319,15.9,0.027182523161172867,0.0,0.045304205268621445,-0.05436485633254051,0.0,-0.09060807526111603,0.10566627254219697,2.2351741790771484e-06,0.0,5.21540641784668e-06,5.674193133312395e-06
320,15.95,0.024464286863803864,0.0,0.04077381268143654,-0.05436483770608902,0.0,-0.09060803800821304,0.10566622847313187,-1.862645149230957e-06,0.0,-2.9802322387695312e-06,3.514431838712321e-06
321,16.0,0.021746039390563965,0.0,0.03624340146780014,-0.054365284740924835,0.0,-0.09060878306627274,0.10566709663032908,-1.564621925354004e-05,0.0,-2.60770320892334e-05,3.0410783934531438e-05
322,16.05,0.01902775838971138,0.0,0.031712934374809265,-0.05436474457383156,0.0,-0.09060792624950409,0.10566608745200003,2.8312206268310547e-05,0.0,4.544854164123535e-05,5.354578378448173e-05
323,16.1,0.01630956493318081,0.0,0.02718260884284973,-0.05436469614505768,0.0,-0.09060785174369812,0.10566599711023852,-1.564621925354004e-05,0.0,-2.5331974029541016e-05,2.9774369601440558e-05
324,16.15,0.013591288588941097,0.0,0.022652149200439453,-0.05436628311872482,0.0,-0.09061045944690704,0.10566905216133902,-4.678964614868164e-05,0.0,-7.748603820800781e-05,9.051716469207199e-05
325,16.2,0.010872936807572842,0.0,0.018121562898159027,-0.05436571314930916,0.0,-0.09060955047607422,0.10566797800089782,3.784894943237305e-05,0.0,6.183981895446777e-05,7.25031460107469e-05
326,16.25,0.008154717274010181,0.0,0.013591194525361061,-0.05436506122350693,0.0,-0.09060844779014587,0.10566669560428685,-3.725290298461914e-07,0.0,4.470348358154297e-07,5.819089469244073e-07
327,16.3,0.005436430685222149,0.0,0.00906071811914444,-0.05436538904905319,0.0,-0.09060896933078766,0.1056673136685139,3.725290298461914e-07,0.0,8.940696716308594e-07,9.685754776000977e-07
328,16.35,0.002718178555369377,0.0,0.0045302980579435825,-0.05436430871486664,0.0,-0.0906071811914444,0.10566522479519805,3.635883331298828e-05,0.0,6.020069122314453e-05,7.032842941247912e-05
329,16.4,0.0,0.0,0.0,-0.05436357110738754,0.0,-0.0906059592962265,0.10566379583222872,1.475214958190918e-05,0.0,2.4437904357910156e-05,2.8545351402520647e-05
