frame,time,x,y,z,velocity_x,velocity_y,velocity_z,speed,acceleration_x,acceleration_y,acceleration_z,acceleration_magnitude
1,0.0,0.0,0.0,0.39998891949653625,0.0,0.0,0.0,0.0,0.0,0.0,0.0,0.0
2,0.05,0.0,0.0,0.39731112122535706,0.0,0.0,-0.053555965423583984,0.053555965098800624,0.0,0.0,-1.0711193084716797,1.0711192967591003
3,0.1,0.0,0.0,0.39463332295417786,0.0,0.0,-0.05355566740036011,0.053555667299229594,0.0,0.0,1.1920928955078125e-05,1.1920928955078125e-05
4,0.15,0.0,0.0,0.39195555448532104,0.0,0.0,-0.05355536937713623,0.053555369498002624,0.0,0.0,5.9604644775390625e-06,5.9604644775390625e-06
5,0.2,0.0,0.0,0.38927778601646423,0.0,0.0,-0.05355536937713623,0.053555369498002624,0.0,0.0,0.0,0.0
6,0.25,0.0,0.0,0.3866000175476074,0.0,0.0,-0.05355566740036011,0.053555667299229594,0.0,0.0,-1.1920928955078125e-05,1.1920928955078125e-05
7,0.3,0.0,0.0,0.3839222192764282,0.0,0.0,-0.05355566740036011,0.053555667299229594,0.0,0.0,5.9604644775390625e-06,5.9604644775390625e-06
8,0.35,0.0,0.0,0.3812444508075714,0.0,0.0,-0.05355566740036011,0.053555667299229594,0.0,0.0,-5.9604644775390625e-06,5.9604644775390625e-06
9,0.4,0.0,0.0,0.3785666525363922,0.0,0.0,-0.05355536937713623,0.053555369498002624,0.0,0.0,1.7881393432617188e-05,1.7881393432617188e-05
10,0.45,0.0,0.0,0.3758889138698578,0.0,0.0,-0.053555071353912354,0.05355507169511968,0.0,0.0,0.0,0.0
11,0.5,0.0,0.0,0.373211145401001,0.0,0.0,-0.05355566740036011,0.053555667299229594,0.0,0.0,-1.7881393432617188e-05,1.7881393432617188e-05
12,0.55,0.0,0.0,0.3705333471298218,0.0,0.0,-0.053555965423583984,0.053555965098800624,0.0,0.0,-5.9604644775390625e-06,5.9604644775390625e-06
13,0.6,0.0,0.0,0.3678555488586426,0.0,0.0,-0.05355536937713623,0.053555369498002624,0.0,0.0,2.384185791015625e-05,2.384185791015625e-05
14,0.65,0.0,0.0,0.36517781019210815,0.0,0.0,-0.05355536937713623,0.053555369498002624,0.0,0.0,-1.1920928955078125e-05,1.1920928955078125e-05
15,0.7,0.0,0.0,0.36250001192092896,0.0,0.0,-0.05355566740036011,0.053555667299229594,0.0,0.0,0.0,0.0
16,0.75,0.0,0.0,0.35982224345207214,0.0,0.0,-0.05355536937713623,0.053555369498002624,0.0,0.0,5.9604644775390625e-06,5.9604644775390625e-06
17,0.8,0.0,0.0,0.35714447498321533,0.0,0.0,-0.05355566740036011,0.053555667299229594,0.0,0.0,-1.1920928955078125e-05,1.1920928955078125e-05
18,0.85,0.0,0.0,0.35446667671203613,0.0,0.0,-0.05355566740036011,0.053555667299229594,0.0,0.0,5.9604644775390625e-06,5.9604644775390625e-06
19,0.9,0.0,0.0,0.3517889082431793,0.0,0.0,-0.05355566740036011,0.053555667299229594,0.0,0.0,-5.9604644775390625e-06,5.9604644775390625e-06
20,0.95,0.0,0.0,0.3491111099720001,0.0,0.0,-0.05355536937713623,0.053555369498002624,0.0,0.0,1.7881393432617188e-05,1.7881393432617188e-05
21,1.0,0.0,0.0,0.3464333713054657,0.0,0.0,-0.05355566740036011,0.053555667299229594,0.0,0.0,-2.384185791015625e-05,2.384185791015625e-05
22,1.05,0.0,0.0,0.3437555432319641,0.0,0.0,-0.05355566740036011,0.053555667299229594,0.0,0.0,1.7881393432617188e-05,1.7881393432617188e-05
23,1.1,0.0,0.0,0.3410778045654297,0.0,0.0,-0.05355536937713623,0.053555369498002624,0.0,0.0,-5.9604644775390625e-06,5.9604644775390625e-06
24,1.15,0.0,0.0,0.3384000062942505,0.0,0.0,-0.05355536937713623,0.053555369498002624,0.0,0.0,1.1920928955078125e-05,1.1920928955078125e-05
25,1.2,0.0,0.0,0.33572226762771606,0.0,0.0,-0.05355536937713623,0.053555369498002624,0.0,0.0,-1.1920928955078125e-05,1.1920928955078125e-05
26,1.25,0.0,0.0,0.33304446935653687,0.0,0.0,-0.05355566740036011,0.053555667299229594,0.0,0.0,0.0,0.0
27,1.3,0.0,0.0,0.33036670088768005,0.0,0.0,-0.05355536937713623,0.053555369498002624,0.0,0.0,5.9604644775390625e-06,5.9604644775390625e-06
28,1.35,0.0,0.0,0.32768893241882324,0.0,0.0,-0.05355566740036011,0.053555667299229594,0.0,0.0,-1.1920928955078125e-05,1.1920928955078125e-05
29,1.4,0.0,0.0,0.32501113414764404,0.0,0.0,-0.05355566740036011,0.053555667299229594,0.0,0.0,5.9604644775390625e-06,5.9604644775390625e-06
30,1.45,0.0,0.0,0.32233336567878723,0.0,0.0,-0.05355536937713623,0.053555369498002624,0.0,0.0,5.9604644775390625e-06,5.9604644775390625e-06
31,1.5,0.0,0.0,0.3196555972099304,0.0,0.0,-0.05355536937713623,0.053555369498002624,0.0,0.0,0.0,0.0
32,1.55,0.0,0.0,0.3169778287410736,0.0,0.0,-0.05355566740036011,0.053555667299229594,0.0,0.0,-1.1920928955078125e-05,1.1920928955078125e-05
33,1.6,0.0,0.0,0.3143000304698944,0.0,0.0,-0.05355566740036011,0.053555667299229594,0.0,0.0,5.9604644775390625e-06,5.9604644775390625e-06
34,1.65,0.0,0.0,0.3116222620010376,0.0,0.0,-0.05355536937713623,0.053555369498002624,0.0,0.0,5.9604644775390625e-06,5.9604644775390625e-06
35,1.7,0.0,0.0,0.3089444935321808,0.0,0.0,-0.05355566740036011,0.053555667299229594,0.0,0.0,-1.1920928955078125e-05,1.1920928955078125e-05
36,1.75,0.0,0.0,0.3062666952610016,0.0,0.0,-0.05355566740036011,0.053555667299229594,0.0,0.0,5.9604644775390625e-06,5.9604644775390625e-06
37,1.8,0.0,0.0,0.3035889267921448,0.0,0.0,-0.05355536937713623,0.053555369498002624,0.0,0.0,5.9604644775390625e-06,5.9604644775390625e-06
38,1.85,0.0,0.0,0.30091115832328796,0.0,0.0,-0.05355536937713623,0.053555369498002624,0.0,0.0,0.0,0.0
39,1.9,0.0,0.0,0.29823338985443115,0.0,0.0,-0.05355566740036011,0.053555667299229594,0.0,0.0,-1.1920928955078125e-05,1.1920928955078125e-05
40,1.95,0.0,0.0,0.29555559158325195,0.0,0.0,-0.05355566740036011,0.053555667299229594,0.0,0.0,5.9604644775390625e-06,5.9604644775390625e-06
41,2.0,0.0,0.0,0.29287782311439514,0.0,0.0,-0.05355536937713623,0.053555369498002624,0.0,0.0,5.9604644775390625e-06,5.9604644775390625e-06
42,2.05,0.0,0.0,0.29020005464553833,0.0,0.0,-0.05355566740036011,0.053555667299229594,0.0,0.0,-1.1920928955078125e-05,1.1920928955078125e-05
43,2.1,0.0,0.0,0.28752225637435913,0.0,0.0,-0.05355566740036011,0.053555667299229594,0.0,0.0,5.9604644775390625e-06,5.9604644775390625e-06
44,2.15,0.0,0.0,0.2848444879055023,0.0,0.0,-0.05355566740036011,0.053555667299229594,0.0,0.0,-5.9604644775390625e-06,5.9604644775390625e-06
45,2.2,0.0,0.0,0.2821666896343231,0.0,0.0,-0.05355566740036011,0.053555667299229594,0.0,0.0,5.9604644775390625e-06,5.9604644775390625e-06
46,2.25,0.0,0.0,0.2794889211654663,0.0,0.0,-0.05355566740036011,0.053555667299229594,0.0,0.0,-5.9604644775390625e-06,5.9604644775390625e-06
47,2.3,0.0,0.0,0.2768111228942871,0.0,0.0,-0.05355566740036011,0.053555667299229594,0.0,0.0,5.9604644775390625e-06,5.9604644775390625e-06
48,2.35,0.0,0.0,0.2741333544254303,0.0,0.0,-0.05355536937713623,0.053555369498002624,0.0,0.0,5.9604644775390625e-06,5.9604644775390625e-06
49,2.4,0.0,0.0,0.2714555859565735,0.0,0.0,-0.05355536937713623,0.053555369498002624,0.0,0.0,0.0,0.0
50,2.45,0.0,0.0,0.2687778174877167,0.0,0.0,-0.05355536937713623,0.053555369498002624,0.0,0.0,0.0,0.0
51,2.5,0.0,0.0,0.26610004901885986,0.0,0.0,-0.05355566740036011,0.053555667299229594,0.0,0.0,-1.1920928955078125e-05,1.1920928955078125e-05
52,2.55,0.0,0.0,0.26342225074768066,0.0,0.0,-0.05355536937713623,0.053555369498002624,0.0,0.0,1.7881393432617188e-05,1.7881393432617188e-05
53,2.6,0.0,0.0,0.26074451208114624,0.0,0.0,-0.053555071353912354,0.05355507169511968,0.0,0.0,0.0,0.0
54,2.65,0.0,0.0,0.25806674361228943,0.0,0.0,-0.05355566740036011,0.053555667299229594,0.0,0.0,-1.7881393432617188e-05,1.7881393432617188e-05
55,2.7,0.0,0.0,0.25538894534111023,0.0,0.0,-0.053555965423583984,0.053555965098800624,0.0,0.0,-5.9604644775390625e-06,5.9604644775390625e-06
56,2.75,0.0,0.0,0.25271114706993103,0.0,0.0,-0.05355566740036011,0.053555667299229594,0.0,0.0,1.1920928955078125e-05,1.1920928955078125e-05
57,2.8,0.0,0.0,0.2500333786010742,0.0,0.0,-0.05355536937713623,0.053555369498002624,0.0,0.0,5.9604644775390625e-06,5.9604644775390625e-06
58,2.85,0.0,0.0,0.2473556101322174,0.0,0.0,-0.05355566740036011,0.053555667299229594,0.0,0.0,-1.1920928955078125e-05,1.1920928955078125e-05
59,2.9,0.0,0.0,0.2446778118610382,0.0,0.0,-0.05355551838874817,0.053555517311957304,0.0,0.0,1.1920928955078125e-05,1.1920928955078125e-05
60,2.95,0.0,0.0,0.2420000582933426,0.0,0.0,-0.05355536937713623,0.053555369498002624,0.0,0.0,-2.9802322387695312e-06,2.9802322387695312e-06
61,3.0,0.0,0.0,0.23932227492332458,0.0,0.0,-0.05355566740036011,0.053555667299229594,0.0,0.0,-5.9604644775390625e-06,5.9604644775390625e-06
62,3.05,0.0,0.0,0.23664449155330658,0.0,0.0,-0.05355566740036011,0.053555667299229594,0.0,0.0,0.0,0.0
63,3.1,0.0,0.0,0.23396670818328857,0.0,0.0,-0.05355551838874817,0.053555517311957304,0.0,0.0,5.9604644775390625e-06,5.9604644775390625e-06
64,3.15,0.0,0.0,0.23128893971443176,0.0,0.0,-0.05355536937713623,0.053555369498002624,0.0,0.0,2.9802322387695312e-06,2.9802322387695312e-06
65,3.2,0.0,0.0,0.22861117124557495,0.0,0.0,-0.05355551838874817,0.053555517311957304,0.0,0.0,-5.9604644775390625e-06,5.9604644775390625e-06
66,3.25,0.0,0.0,0.22593338787555695,0.0,0.0,-0.05355551838874817,0.053555517311957304,0.0,0.0,2.9802322387695312e-06,2.9802322387695312e-06
67,3.3,0.0,0.0,0.22325561940670013,0.0,0.0,-0.05355551838874817,0.053555517311957304,0.0,0.0,-2.9802322387695312e-06,2.9802322387695312e-06
68,3.35,0.0,0.0,0.22057783603668213,0.0,0.0,-0.05355551838874817,0.053555517311957304,0.0,0.0,2.9802322387695312e-06,2.9802322387695312e-06
69,3.4,0.0,0.0,0.21790006756782532,0.0,0.0,-0.05355551838874817,0.053555517311957304,0.0,0.0,-2.9802322387695312e-06,2.9802322387695312e-06
70,3.45,0.0,0.0,0.2152222841978073,0.0,0.0,-0.05355551838874817,0.053555517311957304,0.0,0.0,2.9802322387695312e-06,2.9802322387695312e-06
71,3.5,0.0,0.0,0.2125445157289505,0.0,0.0,-0.05355566740036011,0.053555667299229594,0.0,0.0,-8.940696716308594e-06,8.940696716308594e-06
72,3.55,0.0,0.0,0.2098667174577713,0.0,0.0,-0.05355551838874817,0.053555517311957304,0.0,0.0,1.1920928955078125e-05,1.1920928955078125e-05
73,3.6,0.0,0.0,0.20718896389007568,0.0,0.0,-0.05355536937713623,0.053555369498002624,0.0,0.0,-2.9802322387695312e-06,2.9802322387695312e-06
74,3.65,0.0,0.0,0.20451118052005768,0.0,0.0,-0.05355566740036011,0.053555667299229594,0.0,0.0,-5.9604644775390625e-06,5.9604644775390625e-06
75,3.7,0.0,0.0,0.20183339715003967,0.0,0.0,-0.05355551838874817,0.053555517311957304,0.0,0.0,5.9604644775390625e-06,5.9604644775390625e-06
76,3.75,0.0,0.0,0.19915562868118286,0.0,0.0,-0.05355551838874817,0.053555517311957304,0.0,0.0,-2.9802322387695312e-06,2.9802322387695312e-06
77,3.8,0.0,0.0,0.19647784531116486,0.0,0.0,-0.05355551838874817,0.053555517311957304,0.0,0.0,2.9802322387695312e-06,2.9802322387695312e-06
78,3.85,0.0,0.0,0.19380007684230804,0.0,0.0,-0.05355566740036011,0.053555667299229594,0.0,0.0,-8.940696716308594e-06,8.940696716308594e-06
79,3.9,0.0,0.0,0.19112227857112885,0.0,0.0,-0.05355566740036011,0.053555667299229594,0.0,0.0,5.9604644775390625e-06,5.9604644775390625e-06
80,3.95,0.0,0.0,0.18844451010227203,0.0,0.0,-0.05355551838874817,0.053555517311957304,0.0,0.0,0.0,0.0
81,4.0,0.0,0.0,0.18576672673225403,0.0,0.0,-0.05355551838874817,0.053555517311957304,0.0,0.0,2.9802322387695312e-06,2.9802322387695312e-06
82,4.05,0.0,0.0,0.18308895826339722,0.0,0.0,-0.05355551838874817,0.053555517311957304,0.0,0.0,-2.9802322387695312e-06,2.9802322387695312e-06
83,4.1,0.0,0.0,0.1804111748933792,0.0,0.0,-0.05355536937713623,0.053555369498002624,0.0,0.0,8.940696716308594e-06,8.940696716308594e-06
84,4.15,0.0,0.0,0.1777334213256836,0.0,0.0,-0.05355536937713623,0.053555369498002624,0.0,0.0,-5.9604644775390625e-06,5.9604644775390625e-06
85,4.2,0.0,0.0,0.1750556379556656,0.0,0.0,-0.05355551838874817,0.053555517311957304,0.0,0.0,0.0,0.0
86,4.25,0.0,0.0,0.17237786948680878,0.0,0.0,-0.05355551838874817,0.053555517311957304,0.0,0.0,-2.9802322387695312e-06,2.9802322387695312e-06
87,4.3,0.0,0.0,0.16970008611679077,0.0,0.0,-0.053555816411972046,0.05355581728608184,0.0,0.0,-8.940696716308594e-06,8.940696716308594e-06
88,4.35,0.0,0.0,0.16702228784561157,0.0,0.0,-0.05355566740036011,0.053555667299229594,0.0,0.0,8.940696716308594e-06,8.940696716308594e-06
89,4.4,0.0,0.0,0.16434451937675476,0.0,0.0,-0.05355566740036011,0.053555667299229594,0.0,0.0,-5.9604644775390625e-06,5.9604644775390625e-06
90,4.45,0.0,0.0,0.16166672110557556,0.0,0.0,-0.05355551838874817,0.053555517311957304,0.0,0.0,1.1920928955078125e-05,1.1920928955078125e-05
91,4.5,0.0,0.0,0.15898896753787994,0.0,0.0,-0.05355536937713623,0.053555369498002624,0.0,0.0,-2.9802322387695312e-06,2.9802322387695312e-06
92,4.55,0.0,0.0,0.15631118416786194,0.0,0.0,-0.05355536937713623,0.053555369498002624,0.0,0.0,5.9604644775390625e-06,5.9604644775390625e-06
93,4.6,0.0,0.0,0.15363343060016632,0.0,0.0,-0.05355566740036011,0.053555667299229594,0.0,0.0,-1.7881393432617188e-05,1.7881393432617188e-05
94,4.65,0.0,0.0,0.15095561742782593,0.0,0.0,-0.053555816411972046,0.05355581728608184,0.0,0.0,5.9604644775390625e-06,5.9604644775390625e-06
95,4.7,0.0,0.0,0.14827784895896912,0.0,0.0,-0.05355536937713623,0.053555369498002624,0.0,0.0,8.940696716308594e-06,8.940696716308594e-06
96,4.75,0.0,0.0,0.1456000804901123,0.0,0.0,-0.05355536937713623,0.053555369498002624,0.0,0.0,0.0,0.0
97,4.8,0.0,0.0,0.1429223120212555,0.0,0.0,-0.05355522036552429,0.0535552195098963,0.0,0.0,5.9604644775390625e-06,5.9604644775390625e-06
98,4.85,0.0,0.0,0.14024455845355988,0.0,0.0,-0.05355551838874817,0.053555517311957304,0.0,0.0,-1.4901161193847656e-05,1.4901161193847656e-05
99,4.9,0.0,0.0,0.13756676018238068,0.0,0.0,-0.05355551838874817,0.053555517311957304,0.0,0.0,8.940696716308594e-06,8.940696716308594e-06
100,4.95,0.0,0.0,0.13488900661468506,0.0,0.0,-0.05355522036552429,0.0535552195098963,0.0,0.0,2.9802322387695312e-06,2.9802322387695312e-06
101,5.0,0.0,0.0,0.13221123814582825,0.0,0.0,-0.05355566740036011,0.053555667299229594,0.0,0.0,-1.4901161193847656e-05,1.4901161193847656e-05
102,5.05,0.0,0.0,0.12953343987464905,0.0,0.0,-0.05355566740036011,0.053555667299229594,0.0,0.0,5.9604644775390625e-06,5.9604644775390625e-06
103,5.1,0.0,0.0,0.12685567140579224,0.0,0.0,-0.05355536937713623,0.053555369498002624,0.0,0.0,5.9604644775390625e-06,5.9604644775390625e-06
104,5.15,0.0,0.0,0.12417790293693542,0.0,0.0,-0.05355566740036011,0.053555667299229594,0.0,0.0,-1.1920928955078125e-05,1.1920928955078125e-05
105,5.2,0.0,0.0,0.12150010466575623,0.0,0.0,-0.05355536937713623,0.053555369498002624,0.0,0.0,1.7881393432617188e-05,1.7881393432617188e-05
106,5.25,0.0,0.0,0.1188223659992218,0.0,0.0,-0.05355536937713623,0.053555369498002624,0.0,0.0,-1.1920928955078125e-05,1.1920928955078125e-05
107,5.3,0.0,0.0,0.1161445677280426,0.0,0.0,-0.05355559289455414,0.05355559339251024,0.0,0.0,2.9802322387695312e-06,2.9802322387695312e-06
108,5.35,0.0,0.0,0.11346680670976639,0.0,0.0,-0.05355559289455414,0.05355559339251024,0.0,0.0,-7.450580596923828e-06,7.450580596923828e-06
109,5.4,0.0,0.0,0.11078900843858719,0.0,0.0,-0.05355566740036011,0.053555667299229594,0.0,0.0,4.470348358154297e-06,4.470348358154297e-06
110,5.45,0.0,0.0,0.10811123996973038,0.0,0.0,-0.05355529487133026,0.0535552955908723,0.0,0.0,8.940696716308594e-06,8.940696716308594e-06
111,5.5,0.0,0.0,0.10543347895145416,0.0,0.0,-0.05355551838874817,0.053555517311957304,0.0,0.0,-1.043081283569336e-05,1.043081283569336e-05
112,5.55,0.0,0.0,0.10275568813085556,0.0,0.0,-0.05355559289455414,0.05355559339251024,0.0,0.0,2.9802322387695312e-06,2.9802322387695312e-06
113,5.6,0.0,0.0,0.10007791966199875,0.0,0.0,-0.0535554438829422,0.05355544340503096,0.0,0.0,1.4901161193847656e-06,1.4901161193847656e-06
114,5.65,0.0,0.0,0.09740014374256134,0.0,0.0,-0.05355551838874817,0.053555517311957304,0.0,0.0,-1.4901161193847656e-06,1.4901161193847656e-06
115,5.7,0.0,0.0,0.09472236782312393,0.0,0.0,-0.0535554438829422,0.05355544340503096,0.0,0.0,2.9802322387695312e-06,2.9802322387695312e-06
116,5.75,0.0,0.0,0.09204459935426712,0.0,0.0,-0.05355559289455414,0.05355559339251024,0.0,0.0,-7.450580596923828e-06,7.450580596923828e-06
117,5.8,0.0,0.0,0.08936680853366852,0.0,0.0,-0.05355566740036011,0.053555667299229594,0.0,0.0,1.4901161193847656e-06,1.4901161193847656e-06
118,5.85,0.0,0.0,0.08668903261423111,0.0,0.0,-0.05355551838874817,0.053555517311957304,0.0,0.0,2.9802322387695312e-06,2.9802322387695312e-06
119,5.9,0.0,0.0,0.0840112566947937,0.0,0.0,-0.053555890917778015,0.05355589119249223,0.0,0.0,-1.4901161193847656e-05,1.4901161193847656e-05
120,5.95,0.0,0.0,0.08133344352245331,0.0,0.0,-0.053555816411972046,0.05355581728608184,0.0,0.0,1.043081283569336e-05,1.043081283569336e-05
121,6.0,0.0,0.0,0.0786556750535965,0.0,0.0,-0.05355536937713623,0.053555369498002624,0.0,0.0,8.940696716308594e-06,8.940696716308594e-06
122,6.05,0.0,0.0,0.07597790658473969,0.0,0.0,-0.05355529487133026,0.0535552955908723,0.0,0.0,2.9802322387695312e-06,2.9802322387695312e-06
123,6.1,0.0,0.0,0.07330014556646347,0.0,0.0,-0.05355551838874817,0.053555517311957304,0.0,0.0,-1.043081283569336e-05,1.043081283569336e-05
124,6.15,0.0,0.0,0.07062235474586487,0.0,0.0,-0.05355559289455414,0.05355559339251024,0.0,0.0,2.9802322387695312e-06,2.9802322387695312e-06
125,6.2,0.0,0.0,0.06794458627700806,0.0,0.0,-0.05355574190616608,0.05355574120584697,0.0,0.0,-1.043081283569336e-05,1.043081283569336e-05
126,6.25,0.0,0.0,0.06526678055524826,0.0,0.0,-0.05355566740036011,0.053555667299229594,0.0,0.0,1.043081283569336e-05,1.043081283569336e-05
127,6.3,0.0,0.0,0.06258901953697205,0.0,0.0,-0.05355559289455414,0.05355559339251024,0.0,0.0,-5.9604644775390625e-06,5.9604644775390625e-06
128,6.35,0.0,0.0,0.05991122126579285,0.0,0.0,-0.05355566740036011,0.053555667299229594,0.0,0.0,4.470348358154297e-06,4.470348358154297e-06
129,6.4,0.0,0.0,0.057233452796936035,0.0,0.0,-0.05355525761842728,0.053555258637268885,0.0,0.0,1.043081283569336e-05,1.043081283569336e-05
130,6.45,0.0,0.0,0.05455569550395012,0.0,0.0,-0.05355522036552429,0.0535552195098963,0.0,0.0,-7.450580596923828e-07,7.450580596923828e-07
131,6.5,0.0,0.0,0.051877930760383606,0.0,0.0,-0.05355563014745712,0.05355563034588266,0.0,0.0,-1.4901161193847656e-05,1.4901161193847656e-05
132,6.55,0.0,0.0,0.04920013248920441,0.0,0.0,-0.05355574190616608,0.05355574120584697,0.0,0.0,2.2351741790771484e-06,2.2351741790771484e-06
133,6.6,0.0,0.0,0.046522356569767,0.0,0.0,-0.05355551838874817,0.053555517311957304,0.0,0.0,4.470348358154297e-06,4.470348358154297e-06
134,6.65,0.0,0.0,0.04384458065032959,0.0,0.0,-0.05355574190616608,0.05355574120584697,0.0,0.0,-8.940696716308594e-06,8.940696716308594e-06
135,6.7,0.0,0.0,0.04116678237915039,0.0,0.0,-0.05355529487133026,0.0535552955908723,0.0,0.0,2.2351741790771484e-05,2.2351741790771484e-05
136,6.75,0.0,0.0,0.038489051163196564,0.0,0.0,-0.05355503410100937,0.05355503474136178,0.0,0.0,-2.9802322387695312e-06,2.9802322387695312e-06
137,6.8,0.0,0.0,0.035811278969049454,0.0,0.0,-0.0535554438829422,0.05355544340503096,0.0,0.0,-8.195638656616211e-06,8.195638656616211e-06
138,6.85,0.0,0.0,0.033133506774902344,0.0,0.0,-0.05355570465326309,0.05355570425255103,0.0,0.0,-1.043081283569336e-05,1.043081283569336e-05
139,6.9,0.0,0.0,0.030455708503723145,0.0,0.0,-0.05355574190616608,0.05355574120584697,0.0,0.0,3.725290298461914e-06,3.725290298461914e-06
140,6.95,0.0,0.0,0.027777932584285736,0.0,0.0,-0.053555406630039215,0.05355540645152954,0.0,0.0,8.940696716308594e-06,8.940696716308594e-06
141,7.0,0.0,0.0,0.025100167840719223,0.0,0.0,-0.05355529487133026,0.0535552955908723,0.0,0.0,2.2351741790771484e-06,2.2351741790771484e-06
142,7.05,0.0,0.0,0.02242240309715271,0.0,0.0,-0.053555928170681,0.053555928145659175,0.0,0.0,-2.5331974029541016e-05,2.5331974029541016e-05
143,7.1,0.0,0.0,0.019744575023651123,0.0,0.0,-0.053556039929389954,0.053556039005007036,0.0,0.0,8.195638656616211e-06,8.195638656616211e-06
144,7.15,0.0,0.0,0.017066799104213715,0.0,0.0,-0.05355558544397354,0.053555584697595374,0.0,0.0,7.82310962677002e-06,7.82310962677002e-06
145,7.2,0.0,0.0,0.014389016665518284,0.0,0.0,-0.05355594679713249,0.05355594770909018,0.0,0.0,-1.3187527656555176e-05,1.3187527656555176e-05
146,7.25,0.0,0.0,0.011711204424500465,0.0,0.0,-0.05355587229132652,0.05355587162904058,0.0,0.0,8.940696716308594e-06,8.940696716308594e-06
147,7.3,0.0,0.0,0.009033429436385632,0.0,0.0,-0.05355531722307205,0.053555317328274156,0.0,0.0,1.4677643775939941e-05,1.4677643775939941e-05
148,7.35,0.0,0.0,0.006355672609061003,0.0,0.0,-0.05355532839894295,0.05355532819697178,0.0,0.0,-4.023313522338867e-06,4.023313522338867e-06
149,7.4,0.0,0.0,0.0036778966896235943,0.0,0.0,-0.05355553701519966,0.05355553687553838,0.0,0.0,-4.6193599700927734e-06,4.6193599700927734e-06
150,7.45,0.0,0.0,0.001000118674710393,0.01677655801177025,0.0,-0.03677896782755852,0.040424564170559625,0.6710623502731323,0.0,0.6710633039474487,0.9490261588928056
151,7.5,0.0016776558477431536,0.0,0.0,0.04355442523956299,0.0,-0.010001186281442642,0.04468793602721112,0.7355836033821106,0.0,0.7355793714523315,1.0402693086173858
152,7.55,0.004355442710220814,0.0,0.0,0.053555138409137726,0.0,0.0,0.05355513908131845,0.20000211894512177,0.0,0.20002372562885284,0.282860989918598
153,7.6,0.007033169269561768,0.0,0.0,0.053555525839328766,0.0,0.0,0.053555526006883104,2.771615982055664e-05,0.0,0.0,2.771615982055664e-05
154,7.65,0.009710995480418205,0.0,0.0,0.05355563759803772,0.0,0.0,0.05355563686706339,-1.5422701835632324e-05,0.0,0.0,1.5422701835632324e-05
155,7.7,0.012388733215630054,0.0,0.0,0.05355518311262131,0.0,0.0,0.053555182556240394,-5.21540641784668e-07,0.0,0.0,5.21540641784668e-07
156,7.75,0.015066513791680336,0.0,0.0,0.0535554513335228,0.0,0.0,0.053555452099968766,2.2351741790771484e-06,0.0,0.0,2.2351741790771484e-06
157,7.8,0.01774427853524685,0.0,0.0,0.05355633795261383,0.0,0.0,0.053556338976209525,3.859400749206543e-05,0.0,0.0,3.859400749206543e-05
158,7.85,0.02042214758694172,0.0,0.0,0.05355609580874443,0.0,0.0,0.05355609552144901,-3.0547380447387695e-05,0.0,0.0,3.0547380447387695e-05
159,7.9,0.023099888116121292,0.0,0.0,0.053555238991975784,0.0,0.0,0.05355523907358617,-8.568167686462402e-06,0.0,0.0,8.568167686462402e-06
160,7.95,0.025777671486139297,0.0,0.0,0.05355594679713249,0.0,0.0,0.05355594770909018,1.9744038581848145e-05,0.0,0.0,1.9744038581848145e-05
161,8.0,0.02845548279583454,0.0,0.0,0.05355585366487503,0.0,0.0,0.05355585423929978,-9.313225746154785e-06,0.0,0.0,9.313225746154785e-06
162,8.05,0.0311332568526268,0.0,0.0,0.05355546250939369,0.0,0.0,0.053555462968639035,-8.195638656616211e-06,0.0,0.0,8.195638656616211e-06
163,8.1,0.03381102904677391,0.0,0.0,0.0535554438829422,0.0,0.0,0.05355544340503096,-3.725290298461914e-07,0.0,0.0,3.725290298461914e-07
164,8.15,0.03648880124092102,0.0,0.0,0.05355559289455414,0.0,0.0,0.05355559339251024,5.9604644775390625e-06,0.0,0.0,5.9604644775390625e-06
165,8.2,0.039166588336229324,0.0,0.0,0.05355570465326309,0.0,0.0,0.05355570425255103,1.4901161193847656e-06,0.0,0.0,1.4901161193847656e-06
166,8.25,0.04184437170624733,0.0,0.0,0.05355551838874817,0.0,0.0,0.053555517311957304,-6.705522537231445e-06,0.0,0.0,6.705522537231445e-06
167,8.3,0.04452214017510414,0.0,0.0,0.053555406630039215,0.0,0.0,0.05355540645152954,-1.4901161193847656e-06,0.0,0.0,1.4901161193847656e-06
168,8.35,0.04719991236925125,0.0,0.0,0.05355570465326309,0.0,0.0,0.05355570425255103,1.1175870895385742e-05,0.0,0.0,1.1175870895385742e-05
169,8.4,0.04987771064043045,0.0,0.0,0.05355574190616608,0.0,0.0,0.05355574120584697,-3.725290298461914e-06,0.0,0.0,3.725290298461914e-06
170,8.45,0.05255548655986786,0.0,0.0,0.05355522036552429,0.0,0.0,0.0535552195098963,-1.6391277313232422e-05,0.0,0.0,1.6391277313232422e-05
171,8.5,0.05523323267698288,0.0,0.0,0.053555816411972046,0.0,0.0,0.05355581728608184,2.9802322387695312e-05,0.0,0.0,2.9802322387695312e-05
172,8.55,0.057911068201065063,0.0,0.0,0.053556449711322784,0.0,0.0,0.05355644983470698,7.450580596923828e-06,0.0,0.0,7.450580596923828e-06
173,8.6,0.06058887764811516,0.0,0.0,0.053555816411972046,0.0,0.0,0.05355581728608184,-2.0116567611694336e-05,0.0,0.0,2.0116567611694336e-05
174,8.65,0.06326664984226227,0.0,0.0,0.05355518311262131,0.0,0.0,0.053555182556240394,-1.7881393432617188e-05,0.0,0.0,1.7881393432617188e-05
175,8.7,0.06594439595937729,0.0,0.0,0.05355566740036011,0.0,0.0,0.053555667299229594,2.4586915969848633e-05,0.0,0.0,2.4586915969848633e-05
176,8.75,0.06862221658229828,0.0,0.0,0.05355559289455414,0.0,0.0,0.05355559339251024,-1.7881393432617188e-05,0.0,0.0,1.7881393432617188e-05
177,8.8,0.0712999552488327,0.0,0.0,0.053555071353912354,0.0,0.0,0.05355507169511968,-4.470348358154297e-06,0.0,0.0,4.470348358154297e-06
178,8.85,0.07397772371768951,0.0,0.0,0.05355536937713623,0.0,0.0,0.053555369498002624,5.9604644775390625e-06,0.0,0.0,5.9604644775390625e-06
179,8.9,0.07665549218654633,0.0,0.0,0.05355559289455414,0.0,0.0,0.05355559339251024,8.940696716308594e-06,0.0,0.0,8.940696716308594e-06
180,8.95,0.07933328300714493,0.0,0.0,0.05355551838874817,0.0,0.0,0.053555517311957304,-7.450580596923828e-06,0.0,0.0,7.450580596923828e-06
181,9.0,0.08201104402542114,0.0,0.0,0.05355529487133026,0.0,0.0,0.0535552955908723,-2.9802322387695312e-06,0.0,0.0,2.9802322387695312e-06
182,9.05,0.08468881249427795,0.0,0.0,0.05355559289455414,0.0,0.0,0.05355559339251024,1.043081283569336e-05,0.0,0.0,1.043081283569336e-05
183,9.1,0.08736660331487656,0.0,0.0,0.05355566740036011,0.0,0.0,0.053555667299229594,-1.4901161193847656e-06,0.0,0.0,1.4901161193847656e-06
184,9.15,0.09004437923431396,0.0,0.0,0.0535554438829422,0.0,0.0,0.05355544340503096,-5.9604644775390625e-06,0.0,0.0,5.9604644775390625e-06
185,9.2,0.09272214770317078,0.0,0.0,0.05355536937713623,0.0,0.0,0.053555369498002624,-1.4901161193847656e-06,0.0,0.0,1.4901161193847656e-06
186,9.25,0.09539991617202759,0.0,0.0,0.05355559289455414,0.0,0.0,0.05355559339251024,8.940696716308594e-06,0.0,0.0,8.940696716308594e-06
187,9.3,0.09807770699262619,0.0,0.0,0.05355611443519592,0.0,0.0,0.05355611508481887,1.6391277313232422e-05,0.0,0.0,1.6391277313232422e-05
188,9.35,0.10075552761554718,0.0,0.0,0.05355566740036011,0.0,0.0,0.053555667299229594,-2.384185791015625e-05,0.0,0.0,2.384185791015625e-05
189,9.4,0.1034332737326622,0.0,0.0,0.0535554438829422,0.0,0.0,0.05355544340503096,5.9604644775390625e-06,0.0,0.0,5.9604644775390625e-06
190,9.45,0.1061110720038414,0.0,0.0,0.053556039929389954,0.0,0.0,0.053556039005007036,1.341104507446289e-05,0.0,0.0,1.341104507446289e-05
191,9.5,0.1087888777256012,0.0,0.0,0.05355559289455414,0.0,0.0,0.05355559339251024,-1.9371509552001953e-05,0.0,0.0,1.9371509552001953e-05
192,9.55,0.11146663129329681,0.0,0.0,0.05355551838874817,0.0,0.0,0.053555517311957304,7.450580596923828e-06,0.0,0.0,7.450580596923828e-06
193,9.6,0.11414442956447601,0.0,0.0,0.053555890917778015,0.0,0.0,0.05355589119249223,5.9604644775390625e-06,0.0,0.0,5.9604644775390625e-06
194,9.65,0.11682222038507462,0.0,0.0,0.05355522036552429,0.0,0.0,0.0535552195098963,-2.5331974029541016e-05,0.0,0.0,2.5331974029541016e-05
195,9.7,0.11949995160102844,0.0,0.0,0.05355536937713623,0.0,0.0,0.053555369498002624,1.7881393432617188e-05,0.0,0.0,1.7881393432617188e-05
196,9.75,0.12217775732278824,0.0,0.0,0.05355536937713623,0.0,0.0,0.053555369498002624,-1.4901161193847656e-05,0.0,0.0,1.4901161193847656e-05
197,9.8,0.12485548853874207,0.0,0.0,0.05355514585971832,0.0,0.0,0.05355514560255899,5.9604644775390625e-06,0.0,0.0,5.9604644775390625e-06
198,9.85,0.12753327190876007,0.0,0.0,0.053555816411972046,0.0,0.0,0.05355581728608184,1.6391277313232422e-05,0.0,0.0,1.6391277313232422e-05
199,9.9,0.13021107017993927,0.0,0.0,0.05355551838874817,0.0,0.0,0.053555517311957304,-1.4901161193847656e-05,0.0,0.0,1.4901161193847656e-05
200,9.95,0.1328888237476349,0.0,0.0,0.053555071353912354,0.0,0.0,0.05355507169511968,-8.940696716308594e-06,0.0,0.0,8.940696716308594e-06
201,10.0,0.1355665773153305,0.0,0.0,0.05355566740036011,0.0,0.0,0.053555667299229594,2.384185791015625e-05,0.0,0.0,2.384185791015625e-05
202,10.05,0.1382443904876709,0.0,0.0,0.05355656147003174,0.0,0.0,0.05355656069297497,2.384185791015625e-05,0.0,0.0,2.384185791015625e-05
203,10.1,0.14092223346233368,0.0,0.0,0.053555816411972046,0.0,0.0,0.05355581728608184,-3.5762786865234375e-05,0.0,0.0,3.5762786865234375e-05
204,10.15,0.1435999721288681,0.0,0.0,0.05355551838874817,0.0,0.0,0.053555517311957304,8.940696716308594e-06,0.0,0.0,8.940696716308594e-06
205,10.2,0.1462777853012085,0.0,0.0,0.05355551838874817,0.0,0.0,0.053555517311957304,-1.4901161193847656e-05,0.0,0.0,1.4901161193847656e-05
206,10.25,0.14895552396774292,0.0,0.0,0.05355536937713623,0.0,0.0,0.053555369498002624,8.940696716308594e-06,0.0,0.0,8.940696716308594e-06
207,10.3,0.15163332223892212,0.0,0.0,0.05355536937713623,0.0,0.0,0.053555369498002624,-1.1920928955078125e-05,0.0,0.0,1.1920928955078125e-05
208,10.35,0.15431106090545654,0.0,0.0,0.05355522036552429,0.0,0.0,0.0535552195098963,5.9604644775390625e-06,0.0,0.0,5.9604644775390625e-06
209,10.4,0.15698884427547455,0.0,0.0,0.053555816411972046,0.0,0.0,0.05355581728608184,1.4901161193847656e-05,0.0,0.0,1.4901161193847656e-05
210,10.45,0.15966664254665375,0.0,0.0,0.053555071353912354,0.0,0.0,0.05355507169511968,-3.2782554626464844e-05,0.0,0.0,3.2782554626464844e-05
211,10.5,0.16234435141086578,0.0,0.0,0.053554922342300415,0.0,0.0,0.05355492170617932,1.1920928955078125e-05,0.0,0.0,1.1920928955078125e-05
212,10.55,0.1650221347808838,0.0,0.0,0.05355566740036011,0.0,0.0,0.053555667299229594,1.4901161193847656e-05,0.0,0.0,1.4901161193847656e-05
213,10.6,0.1676999181509018,0.0,0.0,0.053555071353912354,0.0,0.0,0.05355507169511968,-2.384185791015625e-05,0.0,0.0,2.384185791015625e-05
214,10.65,0.17037764191627502,0.0,0.0,0.05355522036552429,0.0,0.0,0.0535552195098963,1.7881393432617188e-05,0.0,0.0,1.7881393432617188e-05
215,10.7,0.17305544018745422,0.0,0.0,0.05355536937713623,0.0,0.0,0.053555369498002624,-8.940696716308594e-06,0.0,0.0,8.940696716308594e-06
216,10.75,0.17573317885398865,0.0,0.0,0.05355522036552429,0.0,0.0,0.0535552195098963,5.9604644775390625e-06,0.0,0.0,5.9604644775390625e-06
217,10.8,0.17841096222400665,0.0,0.0,0.053555965423583984,0.0,0.0,0.053555965098800624,2.086162567138672e-05,0.0,0.0,2.086162567138672e-05
218,10.85,0.18108877539634705,0.0,0.0,0.05355626344680786,0.0,0.0,0.053556262896715744,5.9604644775390625e-06,0.0,0.0,5.9604644775390625e-06
219,10.9,0.18376658856868744,0.0,0.0,0.05355626344680786,0.0,0.0,0.053556262896715744,0.0,0.0,0.0,0.0
220,10.95,0.18644440174102783,0.0,0.0,0.05355551838874817,0.0,0.0,0.053555517311957304,-2.9802322387695312e-05,0.0,0.0,2.9802322387695312e-05
221,11.0,0.18912214040756226,0.0,0.0,0.05355462431907654,0.0,0.0,0.05355462390080633,-2.086162567138672e-05,0.0,0.0,2.086162567138672e-05
222,11.05,0.19179986417293549,0.0,0.0,0.05355551838874817,0.0,0.0,0.053555517311957304,3.8743019104003906e-05,0.0,0.0,3.8743019104003906e-05
223,11.1,0.19447769224643707,0.0,0.0,0.05355611443519592,0.0,0.0,0.05355611508481887,2.9802322387695312e-06,0.0,0.0,2.9802322387695312e-06
224,11.15,0.19715547561645508,0.0,0.0,0.05355522036552429,0.0,0.0,0.0535552195098963,-2.682209014892578e-05,0.0,0.0,2.682209014892578e-05
225,11.2,0.1998332142829895,0.0,0.0,0.05355536937713623,0.0,0.0,0.053555369498002624,1.4901161193847656e-05,0.0,0.0,1.4901161193847656e-05
226,11.25,0.2025110125541687,0.0,0.0,0.05355536937713623,0.0,0.0,0.053555369498002624,-1.1920928955078125e-05,0.0,0.0,1.1920928955078125e-05
227,11.3,0.20518875122070312,0.0,0.0,0.05355566740036011,0.0,0.0,0.053555667299229594,2.384185791015625e-05,0.0,0.0,2.384185791015625e-05
228,11.35,0.2078665792942047,0.0,0.0,0.0535564124584198,0.0,0.0,0.053556412881899995,1.1920928955078125e-05,0.0,0.0,1.1920928955078125e-05
229,11.4,0.2105443924665451,0.0,0.0,0.05355551838874817,0.0,0.0,0.053555517311957304,-3.2782554626464844e-05,0.0,0.0,3.2782554626464844e-05
230,11.45,0.21322213113307953,0.0,0.0,0.05355566740036011,0.0,0.0,0.053555667299229594,2.086162567138672e-05,0.0,0.0,2.086162567138672e-05
231,11.5,0.21589995920658112,0.0,0.0,0.05355656147003174,0.0,0.0,0.05355656069297497,1.7881393432617188e-05,0.0,0.0,1.7881393432617188e-05
232,11.55,0.2185777872800827,0.0,0.0,0.05355626344680786,0.0,0.0,0.053556262896715744,-1.1920928955078125e-05,0.0,0.0,1.1920928955078125e-05
233,11.6,0.2212555855512619,0.0,0.0,0.05355522036552429,0.0,0.0,0.0535552195098963,-3.5762786865234375e-05,0.0,0.0,3.5762786865234375e-05
234,11.65,0.22393330931663513,0.0,0.0,0.053554922342300415,0.0,0.0,0.05355492170617932,2.9802322387695312e-06,0.0,0.0,2.9802322387695312e-06
235,11.7,0.22661107778549194,0.0,0.0,0.05355536937713623,0.0,0.0,0.053555369498002624,8.940696716308594e-06,0.0,0.0,8.940696716308594e-06
236,11.75,0.22928884625434875,0.0,0.0,0.053555071353912354,0.0,0.0,0.05355507169511968,-1.1920928955078125e-05,0.0,0.0,1.1920928955078125e-05
237,11.8,0.23196658492088318,0.0,0.0,0.05355522036552429,0.0,0.0,0.0535552195098963,1.1920928955078125e-05,0.0,0.0,1.1920928955078125e-05
238,11.85,0.23464436829090118,0.0,0.0,0.053555816411972046,0.0,0.0,0.05355581728608184,1.4901161193847656e-05,0.0,0.0,1.4901161193847656e-05
239,11.9,0.23732216656208038,0.0,0.0,0.05355626344680786,0.0,0.0,0.053556262896715744,1.4901161193847656e-05,0.0,0.0,1.4901161193847656e-05
240,11.95,0.23999999463558197,0.0,0.0,0.05355656147003174,0.0,0.0,0.05355656069297497,5.9604644775390625e-06,0.0,0.0,5.9604644775390625e-06
