frame,time,x,y,z,velocity_x,velocity_y,velocity_z,speed,acceleration_x,acceleration_y,acceleration_z,acceleration_magnitude
1,0.0,0.17999039590358734,0.0,0.3400076925754547,0.0,0.0,0.0,0.0,0.0,0.0,0.0,0.0
2,0.05,0.17769744992256165,0.0,0.34184202551841736,-0.04585862159729004,0.0,0.03668695688247681,0.05872772813783021,-0.9171664714813232,0.0,0.7337450981140137,1.1745536199796396
3,0.1,0.17540453374385834,0.0,0.3436763882637024,-0.04585832357406616,0.0,0.03668695688247681,0.058727494227277764,5.9604644775390625e-06,0.0,-5.9604644775390625e-06,8.429369702178807e-06
4,0.15,0.17311161756515503,0.0,0.34551072120666504,-0.04585832357406616,0.0,0.03668695688247681,0.058727494227277764,0.0,0.0,5.9604644775390625e-06,5.9604644775390625e-06
5,0.2,0.17081870138645172,0.0,0.3473450839519501,-0.04585877060890198,0.0,0.03668665885925293,0.0587276587576788,-1.7881393432617188e-05,0.0,-1.7881393432617188e-05,2.528810910653642e-05
6,0.25,0.16852574050426483,0.0,0.34917938709259033,-0.04586443305015564,0.0,0.03667980432510376,0.058727797517899666,-0.00021755695343017578,0.0,-0.00026226043701171875,0.00034075147073401956
7,0.3,0.16623225808143616,0.0,0.35101306438446045,-0.04594042897224426,0.0,0.03658413887023926,0.058727524952869585,-0.0029355287551879883,0.0,-0.003701448440551758,0.004724198394335171
8,0.35,0.1639316976070404,0.0,0.35283780097961426,-0.04616767168045044,0.0,0.036295950412750244,0.058726910437978834,-0.007674098014831543,0.0,-0.009739398956298828,0.012399502999343242
9,0.4,0.1616154909133911,0.0,0.3546426594257355,-0.04653036594390869,0.0,0.03582894802093506,0.05872638611293173,-0.01137852668762207,0.0,-0.014704465866088867,0.01859279925280817
10,0.45,0.15927866101264954,0.0,0.35642069578170776,-0.046970099210739136,0.0,0.035249292850494385,0.05872565760060587,-0.013464689254760742,0.0,-0.017821788787841797,0.022336383196821116
11,0.5,0.1569184809923172,0.0,0.3581675887107849,-0.04748135805130005,0.0,0.03455638885498047,0.058724980621187015,-0.015780329704284668,0.0,-0.02148747444152832,0.026659526507482077
12,0.55,0.15453052520751953,0.0,0.3598763346672058,-0.04804059863090515,0.0,0.03377377986907959,0.058724502865274815,-0.016814470291137695,0.0,-0.023674964904785156,0.029038429745719827
13,0.6,0.15211442112922668,0.0,0.36154496669769287,-0.04861891269683838,0.0,0.032935142517089844,0.058724120261264404,-0.017502903938293457,0.0,-0.025522708892822266,0.030947702977432632
14,0.65,0.1496686339378357,0.0,0.3631698489189148,-0.04923433065414429,0.0,0.03200650215148926,0.058723381808651685,-0.018680095672607422,0.0,-0.028395652770996094,0.033989102484204704
15,0.7,0.14719098806381226,0.0,0.3647456169128418,-0.04987269639968872,0.0,0.031001567840576172,0.05872293377650011,-0.019162893295288086,0.0,-0.030374526977539062,0.035914180895815793
16,0.75,0.14468136429786682,0.0,0.3662700057029724,-0.050514787435531616,0.0,0.02994328737258911,0.058722604193144484,-0.019288063049316406,0.0,-0.03205537796020508,0.03741091637438125
17,0.8,0.1421395093202591,0.0,0.3677399456501007,-0.05119144916534424,0.0,0.028767883777618408,0.058720998377099744,-0.020620226860046387,0.0,-0.03612637519836426,0.04159697937793065
18,0.85,0.1395622193813324,0.0,0.36914679408073425,-0.05185917019844055,0.0,0.027547478675842285,0.058721691262371756,-0.019621849060058594,0.0,-0.03619790077209473,0.04117408085678495
19,0.9,0.13695359230041504,0.0,0.37049469351768494,-0.05253598093986511,0.0,0.026229023933410645,0.05871959721716378,-0.020805001258850098,0.0,-0.04094839096069336,0.04593058706786913
20,0.95,0.1343086212873459,0.0,0.3717696964740753,-0.05323469638824463,0.0,0.024779140949249268,0.0587191511387139,-0.020679831504821777,0.0,-0.04341602325439453,0.04808956708591067
21,1.0,0.13163012266159058,0.0,0.37297260761260986,-0.0538848340511322,0.0,0.023331642150878906,0.058719169477561416,-0.019299983978271484,0.0,-0.04348158836364746,0.04757244891825068
22,1.05,0.12892013788223267,0.0,0.3741028606891632,-0.05455225706100464,0.0,0.021718144416809082,0.058716493927864676,-0.02039968967437744,0.0,-0.050008296966552734,0.05400904646945688
23,1.1,0.1261748969554901,0.0,0.37514442205429077,-0.05521923303604126,0.0,0.01996070146560669,0.058716209166462495,-0.019627809524536133,0.0,-0.05255937576293945,0.05610471446961741
24,1.15,0.12339821457862854,0.0,0.3760989308357239,-0.05581997334957123,0.0,0.018212199211120605,0.05871587136676813,-0.01774132251739502,0.0,-0.05252957344055176,0.05544466225819071
25,1.2,0.12059289962053299,0.0,0.37696564197540283,-0.05639508366584778,0.0,0.016337037086486816,0.058713747372585987,-0.017277896404266357,0.0,-0.057446956634521484,0.05998898582682184
26,1.25,0.11775870621204376,0.0,0.37773263454437256,-0.05695618689060211,0.0,0.014250874519348145,0.058711963604226786,-0.01666843891143799,0.0,-0.06350278854370117,0.06565394729916676
27,1.3,0.11489728093147278,0.0,0.37839072942733765,-0.05744621157646179,0.0,0.0121268630027771,0.058712248138369005,-0.014154613018035889,0.0,-0.06318092346191406,0.06474706402183945
28,1.35,0.11201408505439758,0.0,0.37894532084465027,-0.05785122513771057,0.0,0.010011792182922363,0.05871115937886234,-0.011846423149108887,0.0,-0.06390213966369629,0.06499093182173067
29,1.4,0.10911215841770172,0.0,0.3793919086456299,-0.058203116059303284,0.0,0.007684826850891113,0.05870825589048125,-0.010329484939575195,0.0,-0.07147789001464844,0.07222040722427653
30,1.45,0.10619377344846725,0.0,0.3797138035297394,-0.05847722291946411,0.0,0.0051975250244140625,0.05870774899763184,-0.007672607898712158,0.0,-0.0745534896850586,0.07494726084913983
31,1.5,0.10326443612575531,0.0,0.3799116611480713,-0.05864240229129791,0.0,0.002751946449279785,0.058706938544796715,-0.004416704177856445,0.0,-0.07301568984985352,0.07314915010503668
32,1.55,0.10032953321933746,0.0,0.37998899817466736,-0.05870558321475983,0.0,0.00032722949981689453,0.05870649478126039,-0.0014141201972961426,0.0,-0.07288455963134766,0.07289827794832439
33,1.6,0.09739387780427933,0.0,0.379944384098053,-0.05867123603820801,0.0,-0.0020995736122131348,0.05870879148107316,0.0015243887901306152,0.0,-0.07268190383911133,0.0726978874854117
34,1.65,0.09446240961551666,0.0,0.37977904081344604,-0.058530792593955994,0.0,-0.004572272300720215,0.058709108892034505,0.004780292510986328,0.0,-0.07476210594177246,0.07491477607714463
35,1.7,0.09154079854488373,0.0,0.37948715686798096,-0.058304667472839355,0.0,-0.0069075822830200195,0.05871242594052633,0.007073581218719482,0.0,-0.06810426712036133,0.06847062775566815
36,1.75,0.08863194286823273,0.0,0.37908828258514404,-0.058017298579216,0.0,-0.009004473686218262,0.0587119029422616,0.008943676948547363,0.0,-0.06247758865356445,0.06311448651368275
37,1.8,0.08573906868696213,0.0,0.37858670949935913,-0.05766943097114563,0.0,-0.011018514633178711,0.05871261210708003,0.01071840524673462,0.0,-0.06002187728881836,0.06097138685581673
38,1.85,0.08286499977111816,0.0,0.37798643112182617,-0.057266950607299805,0.0,-0.012955665588378906,0.05871416300736581,0.01233816146850586,0.0,-0.05774497985839844,0.05904839455698647
39,1.9,0.08001237362623215,0.0,0.37729114294052124,-0.05681335926055908,0.0,-0.014826655387878418,0.05871616021908499,0.01385509967803955,0.0,-0.05583763122558594,0.057530902626408184
40,1.95,0.07718366384506226,0.0,0.37650376558303833,-0.056281983852386475,0.0,-0.016731321811676025,0.05871625625504032,0.0164717435836792,0.0,-0.057768821716308594,0.0600712506498915
41,2.0,0.0743841752409935,0.0,0.37561801075935364,-0.055701807141304016,0.0,-0.01857578754425049,0.05871755489356786,0.01736283302307129,0.0,-0.05410313606262207,0.05682092392338558
42,2.05,0.07161348313093185,0.0,0.3746461868286133,-0.055104419589042664,0.0,-0.02027571201324463,0.05871628103848716,0.018136203289031982,0.0,-0.05078315734863281,0.053924492812748304
43,2.1,0.06887373328208923,0.0,0.3735904395580292,-0.05446314811706543,0.0,-0.021938681602478027,0.05871575785770386,0.019462406635284424,0.0,-0.04973411560058594,0.05340662356089961
44,2.15,0.06616716831922531,0.0,0.3724523186683655,-0.05377665162086487,0.0,-0.023572146892547607,0.05871604782583844,0.020822882652282715,0.0,-0.048863887786865234,0.05311564610111804
45,2.2,0.06349606812000275,0.0,0.3712332248687744,-0.05304370075464249,0.0,-0.02517879009246826,0.058716315487460896,0.02222508192062378,0.0,-0.04807114601135254,0.05296026192266709
46,2.25,0.06086279824376106,0.0,0.36993443965911865,-0.052262209355831146,0.0,-0.02676457166671753,0.058716955887724125,0.023693591356277466,0.0,-0.04749298095703125,0.05307513043400485
47,2.3,0.05826984718441963,0.0,0.36855676770210266,-0.051410309970378876,0.0,-0.028367340564727783,0.05871733903407771,0.02601221203804016,0.0,-0.04833340644836426,0.0548885536754538
48,2.35,0.055721767246723175,0.0,0.3670977056026459,-0.05046810954809189,0.0,-0.030010640621185303,0.05871685130270941,0.02871379256248474,0.0,-0.0494539737701416,0.057185464457825755
49,2.4,0.05322303622961044,0.0,0.36555570363998413,-0.04947751760482788,0.0,-0.031616389751434326,0.058716443865472784,0.029753893613815308,0.0,-0.04764199256896973,0.05616986478204882
50,2.45,0.05077401548624039,0.0,0.36393606662750244,-0.04844740033149719,0.0,-0.03317058086395264,0.05871488744902734,0.03126263618469238,0.0,-0.046640634536743164,0.056148919747490866
51,2.5,0.048378296196460724,0.0,0.36223864555358887,-0.047342851758003235,0.0,-0.034726858139038086,0.05871371465702223,0.03352165222167969,0.0,-0.046694278717041016,0.057480925734139245
52,2.55,0.046039730310440063,0.0,0.36046338081359863,-0.0461573526263237,0.0,-0.03628671169281006,0.05871308710949809,0.03598928451538086,0.0,-0.046825408935546875,0.059058002243584456
53,2.6,0.043762560933828354,0.0,0.35860997438430786,-0.044882409274578094,0.0,-0.03785282373428345,0.05871343112137277,0.03871843218803406,0.0,-0.047016143798828125,0.06090677205695562
54,2.65,0.041551489382982254,0.0,0.3566780984401703,-0.04344142973423004,0.0,-0.03949582576751709,0.05871182208019829,0.04441961646080017,0.0,-0.05002617835998535,0.06690082903265557
55,2.7,0.03941841796040535,0.0,0.35466039180755615,-0.04184409976005554,0.0,-0.04118293523788452,0.05871084057317057,0.04829317331314087,0.0,-0.050318241119384766,0.06974350158512733
56,2.75,0.0373670794069767,0.0,0.35255980491638184,-0.04017528146505356,0.0,-0.042809247970581055,0.058708474974660786,0.05040615797042847,0.0,-0.048476457595825195,0.06993388020956914
57,2.8,0.035400889813899994,0.0,0.35037946701049805,-0.038400664925575256,0.0,-0.04440486431121826,0.05870607358647746,0.053954869508743286,0.0,-0.04787445068359375,0.07213245345162335
58,2.85,0.033527012914419174,0.0,0.34811931848526,-0.03647699952125549,0.0,-0.04599720239639282,0.05870531507640266,0.05848407745361328,0.0,-0.04773139953613281,0.07548956148214293
59,2.9,0.031753189861774445,0.0,0.34577974677085876,-0.034260768443346024,0.0,-0.04766494035720825,0.05870048318673746,0.06863847374916077,0.0,-0.050824880599975586,0.08540730947272851
60,2.95,0.030100936070084572,0.0,0.3433528244495392,-0.031785909086465836,0.0,-0.04934757947921753,0.05869861695747838,0.07468052208423615,0.0,-0.0498354434967041,0.08978169049703642
61,3.0,0.02857459895312786,0.0,0.340844988822937,-0.029221344739198685,0.0,-0.05090475082397461,0.05869566230369486,0.07739923894405365,0.0,-0.04610419273376465,0.0900901701103809
62,3.05,0.027178801596164703,0.0,0.3382623493671417,-0.026507433503866196,0.0,-0.05236715078353882,0.05869380286317253,0.08244849741458893,0.0,-0.04353523254394531,0.09323664085889037
63,3.1,0.02592385560274124,0.0,0.33560827374458313,-0.023367181420326233,0.0,-0.05383223295211792,0.05868504534589053,0.09743981063365936,0.0,-0.04431605339050293,0.10704405405211073
64,3.15,0.02484208345413208,0.0,0.33287912607192993,-0.01995192840695381,0.0,-0.05519002676010132,0.05868576146827769,0.10197535157203674,0.0,-0.03929734230041504,0.10928519534385651
65,3.2,0.02392866276204586,0.0,0.330089271068573,-0.016651395708322525,0.0,-0.056276023387908936,0.058687816552146596,0.09835101664066315,0.0,-0.03129839897155762,0.1032110064202173
66,3.25,0.023176943883299828,0.0,0.32725152373313904,-0.013373158872127533,0.0,-0.05714505910873413,0.058689003994806976,0.09878911077976227,0.0,-0.02518296241760254,0.10194836872386584
67,3.3,0.022591346874833107,0.0,0.3243747651576996,-0.009956974536180496,0.0,-0.0578385591506958,0.058689352982835286,0.10342299938201904,0.0,-0.019937753677368164,0.10532725714287584
68,3.35,0.022181246429681778,0.0,0.32146766781806946,-0.006719101220369339,0.0,-0.058311522006988525,0.05869735849594437,0.09441561996936798,0.0,-0.012850761413574219,0.095286156544784
69,3.4,0.021919436752796173,0.0,0.31854361295700073,-0.0038144364953041077,0.0,-0.05857527256011963,0.05869933877881945,0.08652843534946442,0.0,-0.007158517837524414,0.08682404223046662
70,3.45,0.021799802780151367,0.0,0.3156101405620575,-0.0008924305438995361,0.0,-0.05869269371032715,0.05869947798994897,0.08844509720802307,0.0,-0.0028133392333984375,0.08848982923694486
71,3.5,0.02183019369840622,0.0,0.312674343585968,0.0019516423344612122,0.0,-0.05867213010787964,0.05870457962909266,0.08375793695449829,0.0,0.0012874603271484375,0.08376783236034874
72,3.55,0.02199496701359749,0.0,0.30974292755126953,0.004489291459321976,0.0,-0.05853593349456787,0.05870782882734925,0.07462948560714722,0.0,0.004571676254272461,0.07476938017839221
73,3.6,0.022279122844338417,0.0,0.30682075023651123,0.00680895522236824,0.0,-0.05831331014633179,0.05870948868148131,0.06891004741191864,0.0,0.00705718994140625,0.06927047286807769
74,3.65,0.022675862535834312,0.0,0.30391159653663635,0.009083990007638931,0.0,-0.05800396203994751,0.05871097416814736,0.06848461925983429,0.0,0.009769201278686523,0.0691778907969657
75,3.7,0.02318752184510231,0.0,0.3010203540325165,0.011278148740530014,0.0,-0.057620108127593994,0.05871348738248903,0.06478242576122284,0.0,0.011771917343139648,0.06584330343484336
76,3.75,0.023803677409887314,0.0,0.29814958572387695,0.013241991400718689,0.0,-0.05720257759094238,0.05871528882501876,0.05765445530414581,0.0,0.012606382369995117,0.059016583459199703
77,3.8,0.02451172098517418,0.0,0.29530009627342224,0.0150250643491745,0.0,-0.056761205196380615,0.05871615513846879,0.05294531583786011,0.0,0.013399124145507812,0.054614494120291665
78,3.85,0.025306183844804764,0.0,0.2924734652042389,0.0167025625705719,0.0,-0.05629211664199829,0.058717783391497635,0.0498160719871521,0.0,0.014191865921020508,0.05179816668509642
79,3.9,0.02618197724223137,0.0,0.2896708846092224,0.018349792808294296,0.0,-0.05577772855758667,0.05871856528386849,0.04962310194969177,0.0,0.01576542854309082,0.05206727404915489
80,3.95,0.027141163125634193,0.0,0.2868956923484802,0.019926317036151886,0.0,-0.05523562431335449,0.05871994738637275,0.04638247191905975,0.0,0.01620650291442871,0.049132315998989026
81,4.0,0.028174608945846558,0.0,0.28414732217788696,0.02134164795279503,0.0,-0.05470454692840576,0.058720127054830734,0.04176124930381775,0.0,0.015878677368164062,0.04467811968642466
82,4.05,0.029275327920913696,0.0,0.28142523765563965,0.02265181392431259,0.0,-0.05417555570602417,0.058720486885730845,0.03895200788974762,0.0,0.01590251922607422,0.0420731392137018
83,4.1,0.030439790338277817,0.0,0.27872976660728455,0.023894459009170532,0.0,-0.053640007972717285,0.05872133936887049,0.036957114934921265,0.0,0.016099214553833008,0.040311450518926095
84,4.15,0.03166477382183075,0.0,0.2760612368583679,0.025075823068618774,0.0,-0.05309939384460449,0.05872258932467882,0.035150349140167236,0.0,0.016236305236816406,0.038719047207919334
85,4.2,0.032947372645139694,0.0,0.2734198272228241,0.02626817673444748,0.0,-0.05251944065093994,0.05872230137131797,0.0361710786819458,0.0,0.017774105072021484,0.04030218110838234
86,4.25,0.0342915914952755,0.0,0.2708092927932739,0.027405470609664917,0.0,-0.05193591117858887,0.0587230670961591,0.033167749643325806,0.0,0.0171661376953125,0.037346699036587536
87,4.3,0.035687919706106186,0.0,0.2682262361049652,0.028427056968212128,0.0,-0.05138397216796875,0.05872316522716452,0.030441582202911377,0.0,0.016582012176513672,0.03466486791054298
88,4.35,0.03713429719209671,0.0,0.26567089557647705,0.029409602284431458,0.0,-0.050827860832214355,0.05872304528924673,0.02929195761680603,0.0,0.016701221466064453,0.033718682474250146
89,4.4,0.03862887993454933,0.0,0.2631434500217438,0.03035780042409897,0.0,-0.05026787519454956,0.058723550315434726,0.028286874294281006,0.0,0.016820430755615234,0.03291009172835095
90,4.45,0.04017007723450661,0.0,0.2606441080570221,0.031303465366363525,0.0,-0.04968464374542236,0.05872368214687493,0.02850368618965149,0.0,0.017708539962768555,0.03355670604668349
91,4.5,0.041759226471185684,0.0,0.25817498564720154,0.03225725144147873,0.0,-0.04907041788101196,0.05872338676474044,0.028561055660247803,0.0,0.018525123596191406,0.03404282775172341
92,4.55,0.04339580237865448,0.0,0.2557370662689209,0.03316111862659454,0.0,-0.048464834690093994,0.05872393094074149,0.026669353246688843,0.0,0.01798272132873535,0.03216570694889544
93,4.6,0.04507533833384514,0.0,0.25332850217819214,0.034012869000434875,0.0,-0.04787087440490723,0.0587238962484329,0.025478005409240723,0.0,0.017887353897094727,0.031130149238591073
94,4.65,0.04679708927869797,0.0,0.2509499788284302,0.0348518043756485,0.0,-0.04726380109786987,0.05872405880650188,0.02511441707611084,0.0,0.018274784088134766,0.03105964744743001
95,4.7,0.04856051877140999,0.0,0.24860212206840515,0.03575179725885391,0.0,-0.04658594727516174,0.05872343236073737,0.027664005756378174,0.0,0.0209808349609375,0.034720205187988996
96,4.75,0.05037226900458336,0.0,0.246291384100914,0.036643557250499725,0.0,-0.04588872194290161,0.05872414405018747,0.026006251573562622,0.0,0.02046525478363037,0.03309307724504826
97,4.8,0.05222487449645996,0.0,0.244013249874115,0.037453919649124146,0.0,-0.045229941606521606,0.05872430264276163,0.024243444204330444,0.0,0.01983046531677246,0.031320790672850714
98,4.85,0.05411766096949577,0.0,0.24176838994026184,0.03829456865787506,0.0,-0.04451960325241089,0.058723667278682196,0.02558976411819458,0.0,0.021758675575256348,0.033589819380861925
99,4.9,0.05605433136224747,0.0,0.2395612895488739,0.03914933651685715,0.0,-0.0437694787979126,0.0587234016330042,0.025413930416107178,0.0,0.02245306968688965,0.03391177044317749
100,4.95,0.05803259462118149,0.0,0.23739144206047058,0.03993954509496689,0.0,-0.04305034875869751,0.05872392796711584,0.023289769887924194,0.0,0.021314620971679688,0.03157097478139815
101,5.0,0.060048285871744156,0.0,0.23525625467300415,0.04072904586791992,0.0,-0.04230394959449768,0.05872375351414765,0.024094432592391968,0.0,0.022923946380615234,0.033257314870105255
102,5.05,0.06210549920797348,0.0,0.2331610471010208,0.041514672338962555,0.0,-0.04153430461883545,0.058724496918081286,0.023120641708374023,0.0,0.022789835929870605,0.032464452550633516
103,5.1,0.06419975310564041,0.0,0.2311028242111206,0.04222780466079712,0.0,-0.04080921411514282,0.058724606941063996,0.021117180585861206,0.0,0.0216066837310791,0.030212317090925676
104,5.15,0.06632827967405319,0.0,0.22908012568950653,0.04295043647289276,0.0,-0.040047019720077515,0.058723962659405694,0.02205073833465576,0.0,0.023382902145385742,0.03214024186899877
105,5.2,0.06849479675292969,0.0,0.22709812223911285,0.04363037645816803,0.0,-0.03930673003196716,0.05872502621594642,0.019599497318267822,0.0,0.021472573280334473,0.029072524891435025
106,5.25,0.07069131731987,0.0,0.22514945268630981,0.044263601303100586,0.0,-0.038591474294662476,0.05872451178606397,0.019328296184539795,0.0,0.02194344997406006,0.029242058970510052
107,5.3,0.07292115688323975,0.0,0.2232389748096466,0.044875368475914,0.0,-0.037879496812820435,0.058725251215653806,0.01780688762664795,0.0,0.020840764045715332,0.027412090198733013
108,5.35,0.0751788541674614,0.0,0.22136150300502777,0.04543125629425049,0.0,-0.03721162676811218,0.05872566850357804,0.016663968563079834,0.0,0.020113587379455566,0.026119805741005236
109,5.4,0.0774642825126648,0.0,0.2195178121328354,0.04595942795276642,0.0,-0.036557912826538086,0.058726058035710314,0.01558065414428711,0.0,0.01939237117767334,0.02487611002392628
110,5.45,0.07977479696273804,0.0,0.21770571172237396,0.046437084674835205,0.0,-0.035948753356933594,0.058725767621414036,0.014089047908782959,0.0,0.01804828643798828,0.02289632938391205
111,5.5,0.08210799098014832,0.0,0.21592293679714203,0.046877264976501465,0.0,-0.03537282347679138,0.05872575770963796,0.013071298599243164,0.0,0.01717209815979004,0.021581005418895485
112,5.55,0.08446252346038818,0.0,0.21416842937469482,0.04727177321910858,0.0,-0.034844428300857544,0.05872609867377375,0.0115126371383667,0.0,0.015482306480407715,0.019293590102691275
113,5.6,0.08683516830205917,0.0,0.21243849396705627,0.04762336611747742,0.0,-0.034362971782684326,0.05872647432673601,0.010441243648529053,0.0,0.014343857765197754,0.017741640871226833
114,5.65,0.08922486007213593,0.0,0.2107321321964264,0.04793137311935425,0.0,-0.033932626247406006,0.05872682222482964,0.008910894393920898,0.0,0.012499094009399414,0.01535028965753456
115,5.7,0.0916283056139946,0.0,0.20904523134231567,0.048193708062171936,0.0,-0.03355950117111206,0.05872711164275592,0.007742643356323242,0.0,0.011032819747924805,0.01347856208208946
116,5.75,0.09404423087835312,0.0,0.20737618207931519,0.048413798213005066,0.0,-0.03324195742607117,0.05872753684664275,0.006307661533355713,0.0,0.009131431579589844,0.011098181695031262
117,5.8,0.0964696854352951,0.0,0.20572103559970856,0.048587992787361145,0.0,-0.03298729658126831,0.05872780247361578,0.005061924457550049,0.0,0.007405877113342285,0.008970512570722644
118,5.85,0.09890303015708923,0.0,0.20407745242118835,0.04871957004070282,0.0,-0.032792240381240845,0.05872756955450653,0.0036850571632385254,0.0,0.0054895877838134766,0.006611748654639981
119,5.9,0.10134164243936539,0.0,0.20244181156158447,0.048805996775627136,0.0,-0.032663196325302124,0.05872741889995239,0.002403557300567627,0.0,0.003573298454284668,0.004306454366425211
120,5.95,0.10378362983465195,0.0,0.20081113278865814,0.04884995520114899,0.0,-0.03259807825088501,0.058727785624179296,0.0010833144187927246,0.0,0.0016123056411743164,0.0019424468349095198
121,6.0,0.10622663795948029,0.0,0.19918200373649597,0.04884950816631317,0.0,-0.032597631216049194,0.05872716615624679,-0.00022202730178833008,0.0,-0.00029206275939941406,0.00036687433566196236
122,6.05,0.10866858065128326,0.0,0.19755136966705322,0.04880547523498535,0.0,-0.03266334533691406,0.058727068031926795,-0.0015482306480407715,0.0,-0.002327561378479004,0.002795453478274979
123,6.1,0.11110718548297882,0.0,0.19591566920280457,0.04871942102909088,0.0,-0.032793134450912476,0.05872794618920107,-0.0027745962142944336,0.0,-0.004178285598754883,0.005015621117520677
124,6.15,0.11354052275419235,0.0,0.19427205622196198,0.04858732223510742,0.0,-0.032988041639328,0.05872766569569762,-0.00423043966293335,0.0,-0.006213784217834473,0.007517162593780358
125,6.2,0.11596591770648956,0.0,0.19261686503887177,0.048413053154945374,0.0,-0.033243149518966675,0.058727597306619084,-0.0053822994232177734,0.0,-0.00788867473602295,0.009549886896652843
126,6.25,0.11838182806968689,0.0,0.1909477412700653,0.048192888498306274,0.0,-0.03356128931045532,0.05872746151937203,-0.006909668445587158,0.0,-0.009939074516296387,0.012104904811953993
127,6.3,0.12078520655632019,0.0,0.18926073610782623,0.04793047904968262,0.0,-0.03393441438674927,0.05872712651007663,-0.007990002632141113,0.0,-0.011348724365234375,0.01387925374405046
128,6.35,0.12317487597465515,0.0,0.18755429983139038,0.04762202501296997,0.0,-0.0343652069568634,0.05872669535624792,-0.00959634780883789,0.0,-0.013345479965209961,0.01643750971334455
129,6.4,0.1255474090576172,0.0,0.1858242154121399,0.04727005958557129,0.0,-0.034846365451812744,0.0587258687214344,-0.010651350021362305,0.0,-0.014516711235046387,0.01800517025528444
130,6.45,0.12790188193321228,0.0,0.1840696632862091,0.04687562584877014,0.0,-0.03537505865097046,0.05872579537437813,-0.012165307998657227,0.0,-0.016254186630249023,0.020302544214937022
131,6.5,0.1302349716424942,0.0,0.18228670954704285,0.04643529653549194,0.0,-0.035951435565948486,0.05872599460062826,-0.013336539268493652,0.0,-0.017374753952026367,0.021903090157818238
132,6.55,0.13254541158676147,0.0,0.18047451972961426,0.04595637321472168,0.0,-0.03656044602394104,0.05872524427734972,-0.01462697982788086,0.0,-0.018513202667236328,0.02359421991182675
133,6.6,0.13483060896396637,0.0,0.17863066494464874,0.045428574085235596,0.0,-0.0372140109539032,0.05872510551109585,-0.016063451766967773,0.0,-0.019809603691101074,0.025504016654945182
134,6.65,0.13708826899528503,0.0,0.17675311863422394,0.044873058795928955,0.0,-0.037882477045059204,0.05872540683168722,-0.01671314239501953,0.0,-0.020000338554382324,0.026064203179126826
135,6.7,0.13931791484355927,0.0,0.17484241724014282,0.044260770082473755,0.0,-0.03859475255012512,0.0587245326012334,-0.01888871192932129,0.0,-0.02186000347137451,0.0288901921161062
136,6.75,0.1415143460035324,0.0,0.17289364337921143,0.0436285138130188,0.0,-0.03930911421775818,0.05872523833023128,-0.018647313117980957,0.0,-0.020959973335266113,0.028054282736294997
137,6.8,0.14368076622486115,0.0,0.170911505818367,0.04294738173484802,0.0,-0.0400504469871521,0.058724065744946034,-0.02124309539794922,0.0,-0.022980570793151855,0.03129497938103824
138,6.85,0.1458090841770172,0.0,0.16888859868049622,0.04222467541694641,0.0,-0.04081249237060547,0.05872463469457662,-0.02128779888153076,0.0,-0.022327899932861328,0.030849724479863883
139,6.9,0.1479032337665558,0.0,0.16683025658130646,0.04151105880737305,0.0,-0.04153788089752197,0.058724471146902386,-0.021710991859436035,0.0,-0.02192854881286621,0.030858198879862696
140,6.95,0.14996019005775452,0.0,0.16473481059074402,0.04072532057762146,0.0,-0.04230722784996033,0.05872353247356294,-0.023990869522094727,0.0,-0.023353099822998047,0.03348027900705012
141,7.0,0.15197576582431793,0.0,0.16259953379631042,0.039937347173690796,0.0,-0.04305243492126465,0.058723962659405694,-0.023242831230163574,0.0,-0.021842122077941895,0.03189525802199492
142,7.05,0.1539539247751236,0.0,0.16042956709861755,0.03914564847946167,0.0,-0.043773651123046875,0.05872405186805691,-0.024184584617614746,0.0,-0.021910667419433594,0.03263390103583579
143,7.1,0.1558903306722641,0.0,0.15822216868400574,0.03829047083854675,0.0,-0.04452332854270935,0.05872381992528186,-0.025856494903564453,0.0,-0.02250075340270996,0.034275971762866966
144,7.15,0.15778297185897827,0.0,0.15597723424434662,0.03745123744010925,0.0,-0.04523143172264099,0.058723739637184746,-0.024816393852233887,0.0,-0.020816922187805176,0.032391320708897185
145,7.2,0.15963545441627502,0.0,0.15369902551174164,0.03663972020149231,0.0,-0.04589170217514038,0.058724079621831876,-0.024428963661193848,0.0,-0.019755959510803223,0.03141770541144056
146,7.25,0.1614469438791275,0.0,0.15138806402683258,0.03574743866920471,0.0,-0.04658952355384827,0.0587236157355849,-0.027492642402648926,0.0,-0.0213623046875,0.03481656869958261
147,7.3,0.1632101982831955,0.0,0.1490400731563568,0.034848302602767944,0.0,-0.04726618528366089,0.0587239002132692,-0.02631843090057373,0.0,-0.019660592079162598,0.03285115980614209
148,7.35,0.1649317741394043,0.0,0.1466614454984665,0.0340096652507782,0.0,-0.04787236452102661,0.058723253941417176,-0.025209784507751465,0.0,-0.01811981201171875,0.03104610815688642
149,7.4,0.16661116480827332,0.0,0.14425283670425415,0.03315836191177368,0.0,-0.04846706986427307,0.05872421739930626,-0.02561509609222412,0.0,-0.0177919864654541,0.031187945832628284
150,7.45,0.16824761033058167,0.0,0.14181473851203918,0.03225252032279968,0.0,-0.04907429218292236,0.05872402510547577,-0.027644634246826172,0.0,-0.018391013145446777,0.03320323982639653
151,7.5,0.16983641684055328,0.0,0.13934540748596191,0.03129810094833374,0.0,-0.049687474966049194,0.05872321726626752,-0.028648972511291504,0.0,-0.018280744552612305,0.03398454468440851
152,7.55,0.17137742042541504,0.0,0.13684599101543427,0.030354410409927368,0.0,-0.050269514322280884,0.05872320140673626,-0.028187036514282227,0.0,-0.017264485359191895,0.03305406894992049
153,7.6,0.17287185788154602,0.0,0.13431845605373383,0.02940639853477478,0.0,-0.05083009600639343,0.05872337586134462,-0.02860724925994873,0.0,-0.016799569129943848,0.03317529506025598
154,7.65,0.17431806027889252,0.0,0.13176298141479492,0.028423666954040527,0.0,-0.05138576030731201,0.05872309038989745,-0.029662251472473145,0.0,-0.016638636589050293,0.03401019570302661
155,7.7,0.17571422457695007,0.0,0.12917988002300262,0.027399510145187378,0.0,-0.05193859338760376,0.05872265871081972,-0.03095865249633789,0.0,-0.01658797264099121,0.03512262766462267
156,7.75,0.17705801129341125,0.0,0.12656912207603455,0.026261508464813232,0.0,-0.05252242088317871,0.05872198516617289,-0.03504455089569092,0.0,-0.017821788787841797,0.03931585790239446
157,7.8,0.1783403754234314,0.0,0.12392763793468475,0.025071799755096436,0.0,-0.05310185253620148,0.0587230953460108,-0.03530383110046387,0.0,-0.01703202724456787,0.039197582018613744
158,7.85,0.1795651912689209,0.0,0.1212589368224144,0.023890584707260132,0.0,-0.0536423921585083,0.05872194006467332,-0.03573894500732422,0.0,-0.0161781907081604,0.03923016825946606
159,7.9,0.1807294338941574,0.0,0.11856339871883392,0.022647082805633545,0.0,-0.05417719483375549,0.05872017265335882,-0.03762543201446533,0.0,-0.01602470874786377,0.04089577583429937
160,7.95,0.18182989954948425,0.0,0.11584121733903885,0.02133682370185852,0.0,-0.05470693111419678,0.05872059642059462,-0.03965497016906738,0.0,-0.015860795974731445,0.04270926676881994
161,8.0,0.18286311626434326,0.0,0.11309270560741425,0.019918382167816162,0.0,-0.05523860454559326,0.058720058656972225,-0.04328787326812744,0.0,-0.016000866889953613,0.04615049004212077
162,8.05,0.18382173776626587,0.0,0.11031735688447952,0.018341392278671265,0.0,-0.055780112743377686,0.05871820469771374,-0.048160552978515625,0.0,-0.016292929649353027,0.050841896186155845
163,8.1,0.1846972554922104,0.0,0.10751469433307648,0.016696900129318237,0.0,-0.05629338324069977,0.05871738612174943,-0.04915893077850342,0.0,-0.01506805419921875,0.05141640526695454
164,8.15,0.1854914277791977,0.0,0.10468801856040955,0.015019029378890991,0.0,-0.05676276981830597,0.05871612391125709,-0.05084574222564697,0.0,-0.013972818851470947,0.052730723537194345
165,8.2,0.1861991584300995,0.0,0.10183841735124588,0.013235509395599365,0.0,-0.057204440236091614,0.05871564348099028,-0.05405247211456299,0.0,-0.013081729412078857,0.055612960607561636
166,8.25,0.18681497871875763,0.0,0.09896757453680038,0.011267215013504028,0.0,-0.05762174725532532,0.05871299627317318,-0.06034970283508301,0.0,-0.012443959712982178,0.0616193052351972
167,8.3,0.1873258799314499,0.0,0.09607624262571335,0.009072571992874146,0.0,-0.058005526661872864,0.05871075524820488,-0.06680190563201904,0.0,-0.01125335693359375,0.06774313660554424
168,8.35,0.18772223591804504,0.0,0.0931670218706131,0.006801337003707886,0.0,-0.058314576745033264,0.05870986279863953,-0.067940354347229,0.0,-0.008784234523773193,0.06850587200752993
169,8.4,0.18800601363182068,0.0,0.09024478495121002,0.004481524229049683,0.0,-0.058536455035209656,0.0587077568985014,-0.07027685642242432,0.0,-0.0062718987464904785,0.07055617188137923
170,8.45,0.18817038834095,0.0,0.08731337636709213,0.0019380450248718262,0.0,-0.05867205560207367,0.05870405578240758,-0.077858567237854,0.0,-0.0035896897315979004,0.07794127378514347
171,8.5,0.18819981813430786,0.0,0.08437757939100266,-0.0009067356586456299,0.0,-0.0586923211812973,0.058699324369284454,-0.08680224418640137,0.0,6.705522537231445e-05,0.08680227048711572
172,8.55,0.18807971477508545,0.0,0.0814441442489624,-0.0038239359855651855,0.0,-0.05857504904270172,0.05869973472201837,-0.08678138256072998,0.0,0.0042185187339782715,0.08688385418715269
173,8.6,0.18781742453575134,0.0,0.07852007448673248,-0.006729066371917725,0.0,-0.0583108514547348,0.0586978336837778,-0.0877678394317627,0.0,0.008694827556610107,0.0881974687055588
174,8.65,0.18740680813789368,0.0,0.07561305910348892,-0.009973198175430298,0.0,-0.057835355401039124,0.058688951801392386,-0.10010004043579102,0.0,0.01560896635055542,0.10130971518375359
175,8.7,0.1868201047182083,0.0,0.07273653894662857,-0.01338958740234375,0.0,-0.057141631841659546,0.058689413358173494,-0.10143816471099854,0.0,0.02164989709854126,0.1037228020575617
176,8.75,0.1860678493976593,0.0,0.06989889591932297,-0.016662031412124634,0.0,-0.056273192167282104,0.05868811955190957,-0.09778738021850586,0.0,0.02696216106414795,0.10143633201852019
177,8.8,0.18515390157699585,0.0,0.06710921972990036,-0.01996845006942749,0.0,-0.05518317222595215,0.05868493376093665,-0.09991824626922607,0.0,0.03400743007659912,0.10554696258217279
178,8.85,0.18407100439071655,0.0,0.06438057869672775,-0.02338320016860962,0.0,-0.05382470786571503,0.058684522630542246,-0.10280013084411621,0.0,0.04213154315948486,0.11109875853246425
179,8.9,0.1828155815601349,0.0,0.06172674894332886,-0.02651706337928772,0.0,-0.05236271768808365,0.058694197565339,-0.09084939956665039,0.0,0.043517351150512695,0.10073417150315792
180,8.95,0.18141929805278778,0.0,0.05914430692791939,-0.02923041582107544,0.0,-0.050900205969810486,0.05869623599118654,-0.08036196231842041,0.0,0.04422292113304138,0.09172628737490343
181,9.0,0.17989253997802734,0.0,0.05663672834634781,-0.03179877996444702,0.0,-0.049338825047016144,0.05869822823488467,-0.07663965225219727,0.0,0.04748255014419556,0.09015669043489569
182,9.05,0.17823942005634308,0.0,0.05421042442321777,-0.03427281975746155,0.0,-0.04765648394823074,0.058700652750855155,-0.07368922233581543,0.0,0.0510387122631073,0.08963844954258099
183,9.1,0.1764652580022812,0.0,0.051871079951524734,-0.036483556032180786,0.0,-0.04599176347255707,0.05870512966133818,-0.06422102451324463,0.0,0.04919692873954773,0.08089918421295231
184,9.15,0.174591064453125,0.0,0.04961124807596207,-0.03840699791908264,0.0,-0.04439897835254669,0.058705764234532345,-0.056931376457214355,0.0,0.04780888557434082,0.07434292964103859
185,9.2,0.17262455821037292,0.0,0.047431182116270065,-0.04018217325210571,0.0,-0.042803920805454254,0.05870930681165793,-0.052544474601745605,0.0,0.04784911870956421,0.071066589263079
186,9.25,0.17057284712791443,0.0,0.04533085599541664,-0.04185304045677185,0.0,-0.041174329817295074,0.05871117864966598,-0.04979372024536133,0.0,0.04923567175865173,0.07002546745472486
187,9.3,0.16843925416469574,0.0,0.04331374913454056,-0.04344940185546875,0.0,-0.03948722034692764,0.058711933118344044,-0.0474780797958374,0.0,0.050840526819229126,0.06956239776848018
188,9.35,0.16622790694236755,0.0,0.04138213396072388,-0.04488691687583923,0.0,-0.037847161293029785,0.058713226895546186,-0.04194974899291992,0.0,0.048504024744033813,0.06412816763483475
189,9.4,0.16395056247711182,0.0,0.03952903300523758,-0.04616096615791321,0.0,-0.03628060221672058,0.058712153211190866,-0.03776252269744873,0.0,0.046959519386291504,0.06025947725888936
190,9.45,0.16161181032657623,0.0,0.03775407373905182,-0.04734709858894348,0.0,-0.03472082316875458,0.05871356991521841,-0.0351637601852417,0.0,0.046762824058532715,0.05850856071810779
191,9.5,0.15921585261821747,0.0,0.03605695068836212,-0.04845142364501953,0.0,-0.033164918422698975,0.05871500839496841,-0.03273189067840576,0.0,0.046668946743011475,0.057003220233162726
192,9.55,0.15676666796207428,0.0,0.03443758189678192,-0.049481093883514404,0.0,-0.031610168516635895,0.058716107801974726,-0.030541419982910156,0.0,0.04663914442062378,0.055749333262131814
193,9.6,0.15426774322986603,0.0,0.03289593383669853,-0.050473958253860474,0.0,-0.03000173717737198,0.05871732961653884,-0.029766559600830078,0.0,0.04879310727119446,0.0571560621927882
194,9.65,0.15171927213668823,0.0,0.031437408179044724,-0.051415711641311646,0.0,-0.028359312564134598,0.058718191562918534,-0.027760863304138184,0.0,0.0490725040435791,0.05638063763426761
195,9.7,0.14912617206573486,0.0,0.030060002580285072,-0.05226552486419678,0.0,-0.026759356260299683,0.05871752887151294,-0.025066733360290527,0.0,0.047774240374565125,0.05395108095958305
196,9.75,0.14649271965026855,0.0,0.028761472553014755,-0.05304694175720215,0.0,-0.0251726433634758,0.058716608426838145,-0.023186206817626953,0.0,0.0476934015750885,0.05303075353099081
197,9.8,0.14382147789001465,0.0,0.027542738243937492,-0.05377918481826782,0.0,-0.023565497249364853,0.05871570035957884,-0.021731853485107422,0.0,0.048326700925827026,0.05298814378433029
198,9.85,0.14111480116844177,0.0,0.02640492282807827,-0.05446583032608032,0.0,-0.02193322405219078,0.0587162071837847,-0.020378828048706055,0.0,0.0491071492433548,0.05316774243260456
199,9.9,0.13837489485740662,0.0,0.025349415838718414,-0.055107325315475464,0.0,-0.02026967704296112,0.058716923421779775,-0.01901388168334961,0.0,0.05008019506931305,0.05356821393195869
200,9.95,0.13560406863689423,0.0,0.024377955123782158,-0.05570441484451294,0.0,-0.01856628805398941,0.05871702280220927,-0.017699599266052246,0.0,0.05132630467414856,0.05429240621514745
201,10.0,0.13280445337295532,0.0,0.023492787033319473,-0.05628466606140137,0.0,-0.016720853745937347,0.05871584559180336,-0.017452239990234375,0.0,0.056558847427368164,0.05919023528382373
202,10.05,0.1299756020307541,0.0,0.022705869749188423,-0.05681559443473816,0.0,-0.014819074422121048,0.05871640941657437,-0.01538991928100586,0.0,0.05642101168632507,0.05848230726266634
203,10.1,0.1271228939294815,0.0,0.02201087959110737,-0.057268887758255005,0.0,-0.012948792427778244,0.05871453638219505,-0.013360381126403809,0.0,0.056425854563713074,0.05798600592522581
204,10.15,0.12424871325492859,0.0,0.0214109905064106,-0.05767136812210083,0.0,-0.011010710150003433,0.05871305148135193,-0.011804699897766113,0.0,0.05850307643413544,0.059682166018961855
205,10.2,0.12135575711727142,0.0,0.020909808576107025,-0.058018267154693604,0.0,-0.008996911346912384,0.05871169939271715,-0.010120868682861328,0.0,0.06081052124500275,0.061646990297923095
206,10.25,0.11844688653945923,0.0,0.02051129937171936,-0.058305636048316956,0.0,-0.006899647414684296,0.05871245459825526,-0.008311867713928223,0.0,0.06335601210594177,0.06389891712528768
207,10.3,0.11552519351243973,0.0,0.020219843834638596,-0.05853220820426941,0.0,-0.004559643566608429,0.058709536565512324,-0.006498396396636963,0.0,0.07218942046165466,0.07248131814309336
208,10.35,0.11259366571903229,0.0,0.020055335015058517,-0.058671608567237854,0.0,-0.002087540924549103,0.05870873518447349,-0.0036090612411499023,0.0,0.07349476218223572,0.07358332239411626
209,10.4,0.10965803265571594,0.0,0.020011089742183685,-0.05870558321475983,0.0,0.00033563002943992615,0.0587065422067793,-0.0005379319190979004,0.0,0.07287412881851196,0.07287611528107146
210,10.45,0.1067231073975563,0.0,0.02008889801800251,-0.058642178773880005,0.0,0.0027614086866378784,0.05870715878030463,0.0023946166038513184,0.0,0.0726204365491867,0.07265990564731316
211,10.5,0.10379381477832794,0.0,0.020287230610847473,-0.05847573280334473,0.0,0.005210023373365402,0.058707373581167184,0.00553131103515625,0.0,0.07383972406387329,0.07404661018759813
212,10.55,0.10087553411722183,0.0,0.02060990035533905,-0.058202147483825684,0.0,0.007696021348237991,0.058708762531087984,0.008741021156311035,0.0,0.07457248866558075,0.07508303090957733
213,10.6,0.09797360002994537,0.0,0.021056832745671272,-0.05785025656223297,0.0,0.010019149631261826,0.058711460709064744,0.01080632209777832,0.0,0.0680726021528244,0.06892500187871874
214,10.65,0.09509050846099854,0.0,0.021611815318465233,-0.05744434893131256,0.0,0.012134239077568054,0.058711949848403604,0.012467801570892334,0.0,0.06299354135990143,0.06421551437769295
215,10.7,0.09222916513681412,0.0,0.022270256653428078,-0.05695357918739319,0.0,0.014261212199926376,0.058711943652085805,0.015281140804290771,0.0,0.06438717246055603,0.06617568431486108
216,10.75,0.08939515054225922,0.0,0.02303793653845787,-0.05639262497425079,0.0,0.01634715124964714,0.05871420117523029,0.01697242259979248,0.0,0.06158985197544098,0.06388562471131756
217,10.8,0.08658990263938904,0.0,0.023904971778392792,-0.05581855773925781,0.0,0.01821860671043396,0.05871651499370988,0.017209351062774658,0.0,0.05498714745044708,0.05761725644939952
218,10.85,0.08381329476833344,0.0,0.024859797209501266,-0.05521655082702637,0.0,0.01996884122490883,0.05871645477015584,0.018352270126342773,0.0,0.05245134234428406,0.05556931923804899
219,10.9,0.0810682475566864,0.0,0.025901855900883675,-0.054549574851989746,0.0,0.02172626554965973,0.058717005949679456,0.020366907119750977,0.0,0.05285032093524933,0.05663891956211783
220,10.95,0.07835833728313446,0.0,0.02703242376446724,-0.05388282239437103,0.0,0.023337118327617645,0.058719499575837227,0.01964271068572998,0.0,0.04673227667808533,0.05069261935204108
221,11.0,0.0756799653172493,0.0,0.02823556773364544,-0.05323134362697601,0.0,0.024785883724689484,0.05871895734135364,0.01975148916244507,0.0,0.04343539476394653,0.047715352969062014
222,11.05,0.07303520292043686,0.0,0.029511012136936188,-0.05253247916698456,0.0,0.026235226541757584,0.058719233911304555,0.021232664585113525,0.0,0.04351362586021423,0.04841757584968702
223,11.1,0.07042671740055084,0.0,0.030859090387821198,-0.051857009530067444,0.0,0.0275518000125885,0.05872181169867726,0.019763410091400146,0.0,0.03813616931438446,0.04295299522967282
224,11.15,0.06784950196743011,0.0,0.03226619213819504,-0.051188692450523376,0.0,0.0287734717130661,0.05872133342135657,0.020478665828704834,0.0,0.03706216812133789,0.042343595003996
225,11.2,0.0653078481554985,0.0,0.03373643755912781,-0.050510987639427185,0.0,0.02994794398546219,0.058721709600425984,0.01999586820602417,0.0,0.03435015678405762,0.039746296097734765
226,11.25,0.0627984032034874,0.0,0.03526098653674126,-0.04986938089132309,0.0,0.03100574016571045,0.058722321691653076,0.019222497940063477,0.0,0.031451135873794556,0.03686025527461972
227,11.3,0.060320910066366196,0.0,0.03683701157569885,-0.04923194646835327,0.0,0.03201078623533249,0.05872371683931,0.019107013940811157,0.0,0.029906630516052246,0.03548921753378351
228,11.35,0.05787520855665207,0.0,0.038462065160274506,-0.04861652851104736,0.0,0.032938942313194275,0.05872427687149748,0.018258392810821533,0.0,0.027320533990859985,0.03286001304131946
229,11.4,0.05545925721526146,0.0,0.04013090580701828,-0.04803825169801712,0.0,0.033776797354221344,0.058724319493197466,0.017181038856506348,0.0,0.024756789207458496,0.030134477209055616
230,11.45,0.05307138338685036,0.0,0.04183974489569664,-0.04747945815324783,0.0,0.0345592200756073,0.05872511046703914,0.016736239194869995,0.0,0.023297220468521118,0.028685574312944342
231,11.5,0.050711311399936676,0.0,0.04358682781457901,-0.04696790128946304,0.0,0.03525253385305405,0.058725844933209974,0.014901906251907349,0.0,0.02008378505706787,0.02500850328685985
232,11.55,0.04837459325790405,0.0,0.045364998281002045,-0.04652842879295349,0.0,0.03583148121833801,0.05872639701576865,0.012908130884170532,0.0,0.016940385103225708,0.021297805007059144
233,11.6,0.04605846852064133,0.0,0.04716997593641281,-0.046166107058525085,0.0,0.03629729151725769,0.058726508026356594,0.010374188423156738,0.0,0.013270974159240723,0.016844659147531832
234,11.65,0.043757982552051544,0.0,0.048994727432727814,-0.04593994468450546,0.0,0.03658439964056015,0.058727308882237754,0.005918741226196289,0.0,0.007529556751251221,0.00957735474467016
235,11.7,0.04146447405219078,0.0,0.050828415900468826,-0.04586413502693176,0.0,0.03668010234832764,0.05872775192529183,0.001636892557144165,0.0,0.0020407140254974365,0.0026160908355668104
236,11.75,0.03917156904935837,0.0,0.05266273766756058,-0.04585824906826019,0.0,0.036686547100543976,0.058727180032400024,0.00011473894119262695,0.0,0.00013113021850585938,0.0001742416678966301
237,11.8,0.03687864914536476,0.0,0.054497070610523224,-0.04585806280374527,0.0,0.036686547100543976,0.05872703532378369,1.043081283569336e-05,0.0,-2.2351741790771484e-06,1.066760798042741e-05
238,11.85,0.03458576276898384,0.0,0.056331392377614975,-0.0458579882979393,0.0,0.03668643534183502,0.05872690647334576,-3.725290298461914e-06,0.0,-2.2351741790771484e-06,4.344397704933062e-06
239,11.9,0.03229285031557083,0.0,0.058165714144706726,-0.04585763439536095,0.0,0.036686062812805176,0.05872639800693554,1.9371509552001953e-05,0.0,-1.4901161193847656e-05,2.443972150513042e-05
240,11.95,0.029999999329447746,0.0,0.05999999865889549,-0.0458570197224617,0.0,0.03668569028377533,0.058725685353621965,1.2293457984924316e-05,0.0,-7.450580596923828e-06,1.4374987320285095e-05
