frame,time,x,y,z,velocity_x,velocity_y,velocity_z,speed,acceleration_x,acceleration_y,acceleration_z,acceleration_magnitude
1,0.0,0.0,0.0,5.676139608112862e-06,0.0,0.0,0.0,0.0,0.0,0.0,0.0,0.0
2,0.05,0.0,0.0,0.002649664878845215,0.0,0.0,0.05287977308034897,0.05287977324943983,0.0,0.0,1.0575953722000122,1.0575953769284139
3,0.1,0.0,0.0,0.005293653346598148,0.0,0.0,0.05287976935505867,0.0528797688464207,0.0,0.0,-7.450580596923828e-08,7.450580596923828e-08
4,0.15,0.0,0.0,0.007937641814351082,0.0,0.0,0.05287976935505867,0.0528797688464207,0.0,0.0,0.0,0.0
5,0.2,0.0,0.0,0.010581630282104015,0.0,0.0,0.05287976935505867,0.0528797688464207,0.0,0.0,0.0,0.0
6,0.25,0.0,0.0,0.013225618749856949,0.0,0.0,0.052879780530929565,0.05287977985396784,0.0,0.0,3.725290298461914e-07,3.725290298461914e-07
7,0.3,0.0,0.0,0.015869608148932457,0.0,0.0,0.05287978798151016,0.05287978866000391,0.0,0.0,1.4901161193847656e-07,1.4901161193847656e-07
8,0.35,0.0,0.0,0.018513597548007965,0.0,0.0,0.05287978798151016,0.05287978866000391,0.0,0.0,0.0,0.0
9,0.4,0.0,0.0,0.021157586947083473,0.0,0.0,0.05287976935505867,0.0528797688464207,0.0,0.0,-7.450580596923828e-07,7.450580596923828e-07
10,0.45,0.0,0.0,0.023801574483513832,0.0,0.0,0.05287976935505867,0.0528797688464207,0.0,0.0,3.725290298461914e-07,3.725290298461914e-07
11,0.5,0.0,0.0,0.02644556388258934,0.0,0.0,0.05287975072860718,0.0528797512343405,0.0,0.0,-1.1175870895385742e-06,1.1175870895385742e-06
12,0.55,0.0,0.0,0.02908954955637455,0.0,0.0,0.05287978798151016,0.05287978866000391,0.0,0.0,2.2351741790771484e-06,2.2351741790771484e-06
13,0.6,0.0,0.0,0.031733542680740356,0.0,0.0,0.052879806607961655,0.05287980627207164,0.0,0.0,-7.450580596923828e-07,7.450580596923828e-07
14,0.65,0.0,0.0,0.034377530217170715,0.0,0.0,0.05287975072860718,0.0528797512343405,0.0,0.0,-1.1175870895385742e-06,1.1175870895385742e-06
15,0.7,0.0,0.0,0.037021517753601074,0.0,0.0,0.05287975072860718,0.0528797512343405,0.0,0.0,0.0,0.0
16,0.75,0.0,0.0,0.03966550529003143,0.0,0.0,0.05287978798151016,0.05287978866000391,0.0,0.0,1.4901161193847656e-06,1.4901161193847656e-06
17,0.8,0.0,0.0,0.04230949655175209,0.0,0.0,0.05287982523441315,0.052879826085640826,0.0,0.0,7.450580596923828e-07,7.450580596923828e-07
18,0.85,0.0,0.0,0.04495348781347275,0.0,0.0,0.05287975072860718,0.0528797512343405,0.0,0.0,-2.9802322387695312e-06,2.9802322387695312e-06
19,0.9,0.0,0.0,0.04759747162461281,0.0,0.0,0.05287971347570419,0.05287971380865061,0.0,0.0,0.0,0.0
20,0.95,0.0,0.0,0.05024145916104317,0.0,0.0,0.05287982523441315,0.052879826085640826,0.0,0.0,3.725290298461914e-06,3.725290298461914e-06
21,1.0,0.0,0.0,0.05288545414805412,0.0,0.0,0.05287978798151016,0.05287978866000391,0.0,0.0,-2.9802322387695312e-06,2.9802322387695312e-06
22,1.05,0.0,0.0,0.05552943795919418,0.0,0.0,0.05287975072860718,0.0528797512343405,0.0,0.0,7.450580596923828e-07,7.450580596923828e-07
23,1.1,0.0,0.0,0.05817342922091484,0.0,0.0,0.05287978798151016,0.05287978866000391,0.0,0.0,0.0,0.0
24,1.15,0.0,0.0,0.0608174167573452,0.0,0.0,0.05287978798151016,0.05287978866000391,0.0,0.0,7.450580596923828e-07,7.450580596923828e-07
25,1.2,0.0,0.0,0.06346140801906586,0.0,0.0,0.05287986248731613,0.052879863511251256,0.0,0.0,2.2351741790771484e-06,2.2351741790771484e-06
26,1.25,0.0,0.0,0.06610540300607681,0.0,0.0,0.05287975072860718,0.0528797512343405,0.0,0.0,-5.21540641784668e-06,5.21540641784668e-06
27,1.3,0.0,0.0,0.06874938309192657,0.0,0.0,0.05287967622280121,0.052879676382934226,0.0,0.0,0.0,0.0
28,1.35,0.0,0.0,0.07139337062835693,0.0,0.0,0.05287975072860718,0.0528797512343405,0.0,0.0,1.4901161193847656e-06,1.4901161193847656e-06
29,1.4,0.0,0.0,0.07403735816478729,0.0,0.0,0.05287982523441315,0.052879826085640826,0.0,0.0,2.9802322387695312e-06,2.9802322387695312e-06
30,1.45,0.0,0.0,0.07668135315179825,0.0,0.0,0.05287975072860718,0.0528797512343405,0.0,0.0,-4.470348358154297e-06,4.470348358154297e-06
31,1.5,0.0,0.0,0.07932533323764801,0.0,0.0,0.05287967622280121,0.052879676382934226,0.0,0.0,0.0,0.0
32,1.55,0.0,0.0,0.08196932077407837,0.0,0.0,0.05287982523441315,0.052879826085640826,0.0,0.0,4.470348358154297e-06,4.470348358154297e-06
33,1.6,0.0,0.0,0.08461331576108932,0.0,0.0,0.052879899740219116,0.05287989873533099,0.0,0.0,1.4901161193847656e-06,1.4901161193847656e-06
34,1.65,0.0,0.0,0.08725731074810028,0.0,0.0,0.05287982523441315,0.052879826085640826,0.0,0.0,-2.9802322387695312e-06,2.9802322387695312e-06
35,1.7,0.0,0.0,0.08990129828453064,0.0,0.0,0.05287975072860718,0.0528797512343405,0.0,0.0,-1.4901161193847656e-06,1.4901161193847656e-06
36,1.75,0.0,0.0,0.092545285820961,0.0,0.0,0.05287975072860718,0.0528797512343405,0.0,0.0,0.0,0.0
37,1.8,0.0,0.0,0.09518927335739136,0.0,0.0,0.05287960171699524,0.052879601531421995,0.0,0.0,-5.9604644775390625e-06,5.9604644775390625e-06
38,1.85,0.0,0.0,0.09783324599266052,0.0,0.0,0.05287975072860718,0.0528797512343405,0.0,0.0,8.940696716308594e-06,8.940696716308594e-06
39,1.9,0.0,0.0,0.10047724843025208,0.0,0.0,0.052879899740219116,0.05287989873533099,0.0,0.0,0.0,0.0
40,1.95,0.0,0.0,0.10312123596668243,0.0,0.0,0.05287967622280121,0.052879676382934226,0.0,0.0,-5.9604644775390625e-06,5.9604644775390625e-06
41,2.0,0.0,0.0,0.1057652160525322,0.0,0.0,0.05287982523441315,0.052879826085640826,0.0,0.0,7.450580596923828e-06,7.450580596923828e-06
42,2.05,0.0,0.0,0.10840921849012375,0.0,0.0,0.052879899740219116,0.05287989873533099,0.0,0.0,-1.4901161193847656e-06,1.4901161193847656e-06
43,2.1,0.0,0.0,0.11105320602655411,0.0,0.0,0.05287967622280121,0.052879676382934226,0.0,0.0,-5.9604644775390625e-06,5.9604644775390625e-06
44,2.15,0.0,0.0,0.11369718611240387,0.0,0.0,0.05287982523441315,0.052879826085640826,0.0,0.0,7.450580596923828e-06,7.450580596923828e-06
45,2.2,0.0,0.0,0.11634118854999542,0.0,0.0,0.05287975072860718,0.0528797512343405,0.0,0.0,-7.450580596923828e-06,7.450580596923828e-06
46,2.25,0.0,0.0,0.11898516118526459,0.0,0.0,0.05287960171699524,0.052879601531421995,0.0,0.0,0.0,0.0
47,2.3,0.0,0.0,0.12162914872169495,0.0,0.0,0.05287975072860718,0.0528797512343405,0.0,0.0,2.9802322387695312e-06,2.9802322387695312e-06
48,2.35,0.0,0.0,0.1242731362581253,0.0,0.0,0.052879899740219116,0.05287989873533099,0.0,0.0,5.9604644775390625e-06,5.9604644775390625e-06
49,2.4,0.0,0.0,0.12691713869571686,0.0,0.0,0.052879899740219116,0.05287989873533099,0.0,0.0,-2.9802322387695312e-06,2.9802322387695312e-06
50,2.45,0.0,0.0,0.12956112623214722,0.0,0.0,0.05287960171699524,0.052879601531421995,0.0,0.0,-8.940696716308594e-06,8.940696716308594e-06
51,2.5,0.0,0.0,0.13220509886741638,0.0,0.0,0.05287975072860718,0.0528797512343405,0.0,0.0,8.940696716308594e-06,8.940696716308594e-06
52,2.55,0.0,0.0,0.13484910130500793,0.0,0.0,0.052879899740219116,0.05287989873533099,0.0,0.0,0.0,0.0
53,2.6,0.0,0.0,0.1374930888414383,0.0,0.0,0.05287960171699524,0.052879601531421995,0.0,0.0,-8.940696716308594e-06,8.940696716308594e-06
54,2.65,0.0,0.0,0.14013706147670746,0.0,0.0,0.05287975072860718,0.0528797512343405,0.0,0.0,8.940696716308594e-06,8.940696716308594e-06
55,2.7,0.0,0.0,0.142781063914299,0.0,0.0,0.052879899740219116,0.05287989873533099,0.0,0.0,0.0,0.0
56,2.75,0.0,0.0,0.14542505145072937,0.0,0.0,0.05287975072860718,0.0528797512343405,0.0,0.0,-2.9802322387695312e-06,2.9802322387695312e-06
57,2.8,0.0,0.0,0.14806903898715973,0.0,0.0,0.05287975072860718,0.0528797512343405,0.0,0.0,0.0,0.0
58,2.85,0.0,0.0,0.1507130265235901,0.0,0.0,0.05287960171699524,0.052879601531421995,0.0,0.0,-5.9604644775390625e-06,5.9604644775390625e-06
59,2.9,0.0,0.0,0.15335699915885925,0.0,0.0,0.05287975072860718,0.0528797512343405,0.0,0.0,8.940696716308594e-06,8.940696716308594e-06
60,2.95,0.0,0.0,0.1560010015964508,0.0,0.0,0.05287975072860718,0.0528797512343405,0.0,0.0,-5.9604644775390625e-06,5.9604644775390625e-06
61,3.0,0.0,0.0,0.15864497423171997,0.0,0.0,0.05287975072860718,0.0528797512343405,0.0,0.0,5.9604644775390625e-06,5.9604644775390625e-06
62,3.05,0.0,0.0,0.16128897666931152,0.0,0.0,0.052879899740219116,0.05287989873533099,0.0,0.0,0.0,0.0
63,3.1,0.0,0.0,0.16393296420574188,0.0,0.0,0.05287960171699524,0.052879601531421995,0.0,0.0,-8.940696716308594e-06,8.940696716308594e-06
64,3.15,0.0,0.0,0.16657693684101105,0.0,0.0,0.05287975072860718,0.0528797512343405,0.0,0.0,8.940696716308594e-06,8.940696716308594e-06
65,3.2,0.0,0.0,0.1692209392786026,0.0,0.0,0.052879899740219116,0.05287989873533099,0.0,0.0,0.0,0.0
66,3.25,0.0,0.0,0.17186492681503296,0.0,0.0,0.05287960171699524,0.052879601531421995,0.0,0.0,-8.940696716308594e-06,8.940696716308594e-06
67,3.3,0.0,0.0,0.17450889945030212,0.0,0.0,0.052879899740219116,0.05287989873533099,0.0,0.0,1.4901161193847656e-05,1.4901161193847656e-05
68,3.35,0.0,0.0,0.17715291678905487,0.0,0.0,0.052880048751831055,0.05288004843740812,0.0,0.0,-2.9802322387695312e-06,2.9802322387695312e-06
69,3.4,0.0,0.0,0.17979690432548523,0.0,0.0,0.052879899740219116,0.05287989873533099,0.0,0.0,0.0,0.0
70,3.45,0.0,0.0,0.18244090676307678,0.0,0.0,0.05287975072860718,0.0528797512343405,0.0,0.0,-8.940696716308594e-06,8.940696716308594e-06
71,3.5,0.0,0.0,0.18508487939834595,0.0,0.0,0.05287960171699524,0.052879601531421995,0.0,0.0,0.0,0.0
72,3.55,0.0,0.0,0.1877288669347763,0.0,0.0,0.05287975072860718,0.0528797512343405,0.0,0.0,2.9802322387695312e-06,2.9802322387695312e-06
73,3.6,0.0,0.0,0.19037285447120667,0.0,0.0,0.05287975072860718,0.0528797512343405,0.0,0.0,0.0,0.0
74,3.65,0.0,0.0,0.19301684200763702,0.0,0.0,0.05287975072860718,0.0528797512343405,0.0,0.0,0.0,0.0
75,3.7,0.0,0.0,0.19566082954406738,0.0,0.0,0.052879899740219116,0.05287989873533099,0.0,0.0,5.9604644775390625e-06,5.9604644775390625e-06
76,3.75,0.0,0.0,0.19830483198165894,0.0,0.0,0.05287975072860718,0.0528797512343405,0.0,0.0,-8.940696716308594e-06,8.940696716308594e-06
77,3.8,0.0,0.0,0.2009488046169281,0.0,0.0,0.05287960171699524,0.052879601531421995,0.0,0.0,0.0,0.0
78,3.85,0.0,0.0,0.20359279215335846,0.0,0.0,0.052879899740219116,0.05287989873533099,0.0,0.0,8.940696716308594e-06,8.940696716308594e-06
79,3.9,0.0,0.0,0.20623679459095,0.0,0.0,0.05287975072860718,0.0528797512343405,0.0,0.0,-8.940696716308594e-06,8.940696716308594e-06
80,3.95,0.0,0.0,0.20888076722621918,0.0,0.0,0.05287960171699524,0.052879601531421995,0.0,0.0,0.0,0.0
81,4.0,0.0,0.0,0.21152475476264954,0.0,0.0,0.052879899740219116,0.05287989873533099,0.0,0.0,8.940696716308594e-06,8.940696716308594e-06
82,4.05,0.0,0.0,0.2141687572002411,0.0,0.0,0.05287975072860718,0.0528797512343405,0.0,0.0,-8.940696716308594e-06,8.940696716308594e-06
83,4.1,0.0,0.0,0.21681272983551025,0.0,0.0,0.05287975072860718,0.0528797512343405,0.0,0.0,5.9604644775390625e-06,5.9604644775390625e-06
84,4.15,0.0,0.0,0.2194567322731018,0.0,0.0,0.052880048751831055,0.05288004843740812,0.0,0.0,5.9604644775390625e-06,5.9604644775390625e-06
85,4.2,0.0,0.0,0.22210073471069336,0.0,0.0,0.05287975072860718,0.0528797512343405,0.0,0.0,-1.1920928955078125e-05,1.1920928955078125e-05
86,4.25,0.0,0.0,0.22474470734596252,0.0,0.0,0.05287960171699524,0.052879601531421995,0.0,0.0,0.0,0.0
87,4.3,0.0,0.0,0.22738869488239288,0.0,0.0,0.052879899740219116,0.05287989873533099,0.0,0.0,8.940696716308594e-06,8.940696716308594e-06
88,4.35,0.0,0.0,0.23003269731998444,0.0,0.0,0.05287975072860718,0.0528797512343405,0.0,0.0,-8.940696716308594e-06,8.940696716308594e-06
89,4.4,0.0,0.0,0.2326766699552536,0.0,0.0,0.05287960171699524,0.052879601531421995,0.0,0.0,0.0,0.0
90,4.45,0.0,0.0,0.23532065749168396,0.0,0.0,0.052879899740219116,0.05287989873533099,0.0,0.0,8.940696716308594e-06,8.940696716308594e-06
91,4.5,0.0,0.0,0.2379646599292755,0.0,0.0,0.052879899740219116,0.05287989873533099,0.0,0.0,-2.9802322387695312e-06,2.9802322387695312e-06
92,4.55,0.0,0.0,0.24060864746570587,0.0,0.0,0.05287960171699524,0.052879601531421995,0.0,0.0,-8.940696716308594e-06,8.940696716308594e-06
93,4.6,0.0,0.0,0.24325262010097504,0.0,0.0,0.05287960171699524,0.052879601531421995,0.0,0.0,2.9802322387695312e-06,2.9802322387695312e-06
94,4.65,0.0,0.0,0.2458966076374054,0.0,0.0,0.05287975072860718,0.0528797512343405,0.0,0.0,2.9802322387695312e-06,2.9802322387695312e-06
95,4.7,0.0,0.0,0.24854059517383575,0.0,0.0,0.05287975072860718,0.0528797512343405,0.0,0.0,0.0,0.0
96,4.75,0.0,0.0,0.2511845827102661,0.0,0.0,0.052879899740219116,0.05287989873533099,0.0,0.0,5.9604644775390625e-06,5.9604644775390625e-06
97,4.8,0.0,0.0,0.25382858514785767,0.0,0.0,0.052880048751831055,0.05288004843740812,0.0,0.0,2.9802322387695312e-06,2.9802322387695312e-06
98,4.85,0.0,0.0,0.2564725875854492,0.0,0.0,0.05287975072860718,0.0528797512343405,0.0,0.0,-1.1920928955078125e-05,1.1920928955078125e-05
99,4.9,0.0,0.0,0.2591165602207184,0.0,0.0,0.05287975072860718,0.0528797512343405,0.0,0.0,5.9604644775390625e-06,5.9604644775390625e-06
100,4.95,0.0,0.0,0.26176056265830994,0.0,0.0,0.05287975072860718,0.0528797512343405,0.0,0.0,-5.9604644775390625e-06,5.9604644775390625e-06
101,5.0,0.0,0.0,0.2644045352935791,0.0,0.0,0.0528794527053833,0.052879451828079675,0.0,0.0,-5.9604644775390625e-06,5.9604644775390625e-06
102,5.05,0.0,0.0,0.26704850792884827,0.0,0.0,0.05287975072860718,0.0528797512343405,0.0,0.0,1.1920928955078125e-05,1.1920928955078125e-05
103,5.1,0.0,0.0,0.2696925103664398,0.0,0.0,0.052880048751831055,0.05288004843740812,0.0,0.0,5.9604644775390625e-06,5.9604644775390625e-06
104,5.15,0.0,0.0,0.27233651280403137,0.0,0.0,0.05287975072860718,0.0528797512343405,0.0,0.0,-1.1920928955078125e-05,1.1920928955078125e-05
105,5.2,0.0,0.0,0.27498048543930054,0.0,0.0,0.05287975072860718,0.0528797512343405,0.0,0.0,5.9604644775390625e-06,5.9604644775390625e-06
106,5.25,0.0,0.0,0.2776244878768921,0.0,0.0,0.05287975072860718,0.0528797512343405,0.0,0.0,-5.9604644775390625e-06,5.9604644775390625e-06
107,5.3,0.0,0.0,0.28026846051216125,0.0,0.0,0.0528794527053833,0.052879451828079675,0.0,0.0,-5.9604644775390625e-06,5.9604644775390625e-06
108,5.35,0.0,0.0,0.2829124331474304,0.0,0.0,0.05287975072860718,0.0528797512343405,0.0,0.0,1.1920928955078125e-05,1.1920928955078125e-05
109,5.4,0.0,0.0,0.285556435585022,0.0,0.0,0.052880048751831055,0.05288004843740812,0.0,0.0,5.9604644775390625e-06,5.9604644775390625e-06
110,5.45,0.0,0.0,0.2882004380226135,0.0,0.0,0.05287975072860718,0.0528797512343405,0.0,0.0,-1.1920928955078125e-05,1.1920928955078125e-05
111,5.5,0.0,0.0,0.2908444106578827,0.0,0.0,0.05287975072860718,0.0528797512343405,0.0,0.0,5.9604644775390625e-06,5.9604644775390625e-06
112,5.55,0.0,0.0,0.29348841309547424,0.0,0.0,0.052880048751831055,0.05288004843740812,0.0,0.0,5.9604644775390625e-06,5.9604644775390625e-06
113,5.6,0.0,0.0,0.2961324155330658,0.0,0.0,0.05287975072860718,0.0528797512343405,0.0,0.0,-1.1920928955078125e-05,1.1920928955078125e-05
114,5.65,0.0,0.0,0.29877638816833496,0.0,0.0,0.05287975072860718,0.0528797512343405,0.0,0.0,5.9604644775390625e-06,5.9604644775390625e-06
115,5.7,0.0,0.0,0.3014203906059265,0.0,0.0,0.05287975072860718,0.0528797512343405,0.0,0.0,-5.9604644775390625e-06,5.9604644775390625e-06
116,5.75,0.0,0.0,0.3040643632411957,0.0,0.0,0.0528794527053833,0.052879451828079675,0.0,0.0,-5.9604644775390625e-06,5.9604644775390625e-06
117,5.8,0.0,0.0,0.30670833587646484,0.0,0.0,0.05287975072860718,0.0528797512343405,0.0,0.0,1.1920928955078125e-05,1.1920928955078125e-05
118,5.85,0.0,0.0,0.3093523383140564,0.0,0.0,0.052880048751831055,0.05288004843740812,0.0,0.0,5.9604644775390625e-06,5.9604644775390625e-06
119,5.9,0.0,0.0,0.31199634075164795,0.0,0.0,0.05287975072860718,0.0528797512343405,0.0,0.0,-1.1920928955078125e-05,1.1920928955078125e-05
120,5.95,0.0,0.0,0.3146403133869171,0.0,0.0,0.05287975072860718,0.0528797512343405,0.0,0.0,5.9604644775390625e-06,5.9604644775390625e-06
121,6.0,0.0,0.0,0.31728431582450867,0.0,0.0,0.052880048751831055,0.05288004843740812,0.0,0.0,5.9604644775390625e-06,5.9604644775390625e-06
122,6.05,0.0,0.0,0.3199283182621002,0.0,0.0,0.0528794527053833,0.052879451828079675,0.0,0.0,-2.384185791015625e-05,2.384185791015625e-05
123,6.1,0.0,0.0,0.322572261095047,0.0,0.0,0.05287975072860718,0.0528797512343405,0.0,0.0,2.384185791015625e-05,2.384185791015625e-05
124,6.15,0.0,0.0,0.32521629333496094,0.0,0.0,0.052880048751831055,0.05288004843740812,0.0,0.0,-5.9604644775390625e-06,5.9604644775390625e-06
125,6.2,0.0,0.0,0.3278602659702301,0.0,0.0,0.0528794527053833,0.052879451828079675,0.0,0.0,-1.1920928955078125e-05,1.1920928955078125e-05
126,6.25,0.0,0.0,0.33050423860549927,0.0,0.0,0.05287975072860718,0.0528797512343405,0.0,0.0,1.1920928955078125e-05,1.1920928955078125e-05
127,6.3,0.0,0.0,0.3331482410430908,0.0,0.0,0.052880048751831055,0.05288004843740812,0.0,0.0,5.9604644775390625e-06,5.9604644775390625e-06
128,6.35,0.0,0.0,0.3357922434806824,0.0,0.0,0.052880048751831055,0.05288004843740812,0.0,0.0,0.0,0.0
129,6.4,0.0,0.0,0.3384362459182739,0.0,0.0,0.0528794527053833,0.052879451828079675,0.0,0.0,-2.384185791015625e-05,2.384185791015625e-05
130,6.45,0.0,0.0,0.3410801887512207,0.0,0.0,0.0528794527053833,0.052879451828079675,0.0,0.0,1.1920928955078125e-05,1.1920928955078125e-05
131,6.5,0.0,0.0,0.34372419118881226,0.0,0.0,0.05287975072860718,0.0528797512343405,0.0,0.0,0.0,0.0
132,6.55,0.0,0.0,0.3463681638240814,0.0,0.0,0.05287975072860718,0.0528797512343405,0.0,0.0,5.9604644775390625e-06,5.9604644775390625e-06
133,6.6,0.0,0.0,0.349012166261673,0.0,0.0,0.052880048751831055,0.05288004843740812,0.0,0.0,5.9604644775390625e-06,5.9604644775390625e-06
134,6.65,0.0,0.0,0.3516561686992645,0.0,0.0,0.052880048751831055,0.05288004843740812,0.0,0.0,0.0,0.0
135,6.7,0.0,0.0,0.3543001711368561,0.0,0.0,0.05287975072860718,0.0528797512343405,0.0,0.0,-1.1920928955078125e-05,1.1920928955078125e-05
136,6.75,0.0,0.0,0.35694414377212524,0.0,0.0,0.0528794527053833,0.052879451828079675,0.0,0.0,-5.9604644775390625e-06,5.9604644775390625e-06
137,6.8,0.0,0.0,0.3595881164073944,0.0,0.0,0.05287975072860718,0.0528797512343405,0.0,0.0,1.1920928955078125e-05,1.1920928955078125e-05
138,6.85,0.0,0.0,0.36223211884498596,0.0,0.0,0.05287975072860718,0.0528797512343405,0.0,0.0,-5.9604644775390625e-06,5.9604644775390625e-06
139,6.9,0.0,0.0,0.3648760914802551,0.0,0.0,0.052880048751831055,0.05288004843740812,0.0,0.0,1.7881393432617188e-05,1.7881393432617188e-05
140,6.95,0.0,0.0,0.36752012372016907,0.0,0.0,0.05287975072860718,0.0528797512343405,0.0,0.0,-2.384185791015625e-05,2.384185791015625e-05
141,7.0,0.0,0.0,0.37016406655311584,0.0,0.0,0.05287975072860718,0.0528797512343405,0.0,0.0,1.7881393432617188e-05,1.7881393432617188e-05
142,7.05,0.0,0.0,0.3728080987930298,0.0,0.0,0.05287975072860718,0.0528797512343405,0.0,0.0,-1.7881393432617188e-05,1.7881393432617188e-05
143,7.1,0.0,0.0,0.37545204162597656,0.0,0.0,0.0528794527053833,0.052879451828079675,0.0,0.0,5.9604644775390625e-06,5.9604644775390625e-06
144,7.15,0.0,0.0,0.3780960440635681,0.0,0.0,0.05287975072860718,0.0528797512343405,0.0,0.0,0.0,0.0
145,7.2,0.0,0.0,0.3807400166988373,0.0,0.0,0.052880048751831055,0.05288004843740812,0.0,0.0,1.7881393432617188e-05,1.7881393432617188e-05
146,7.25,0.0,0.0,0.3833840489387512,0.0,0.0,0.05287975072860718,0.0528797512343405,0.0,0.0,-2.384185791015625e-05,2.384185791015625e-05
147,7.3,0.0,0.0,0.386027991771698,0.0,0.0,0.0528794527053833,0.052879451828079675,0.0,0.0,5.9604644775390625e-06,5.9604644775390625e-06
148,7.35,0.0,0.0,0.38867199420928955,0.0,0.0,0.05287975072860718,0.0528797512343405,0.0,0.0,0.0,0.0
149,7.4,0.0,0.0,0.3913159668445587,0.0,0.0,0.05287975072860718,0.0528797512343405,0.0,0.0,5.9604644775390625e-06,5.9604644775390625e-06
150,7.45,0.0,0.0,0.39395996928215027,0.0,0.0,0.05287975072860718,0.0528797512343405,0.0,0.0,-5.9604644775390625e-06,5.9604644775390625e-06
151,7.5,0.0,0.0,0.39660394191741943,0.0,0.0,0.05287975072860718,0.0528797512343405,0.0,0.0,5.9604644775390625e-06,5.9604644775390625e-06
152,7.55,0.0,0.0,0.399247944355011,0.009734257124364376,0.0,0.017736852169036865,0.020232441725632776,0.38937029242515564,0.0,-1.40572190284729,1.4586511918348875
153,7.6,0.0009734256891533732,0.0,0.3983776271343231,0.023337209597229958,0.0,-0.031374990940093994,0.03910262609915939,0.34943297505378723,0.0,-1.2616097927093506,1.3091075998588846
154,7.65,0.002333720913156867,0.0,0.3961104452610016,0.027206288650631905,0.0,-0.04534393548965454,0.05287962354658365,0.07738921791315079,0.0,-0.2793848514556885,0.2899051342597089
155,7.7,0.003694054437801242,0.0,0.39384323358535767,0.027206597849726677,0.0,-0.04534393548965454,0.05287978260585427,4.731118679046631e-06,0.0,5.9604644775390625e-06,7.609902807738673e-06
156,7.75,0.0050543807446956635,0.0,0.39157605171203613,0.02720647305250168,0.0,-0.04534393548965454,0.05287971876205226,-3.5762786865234375e-06,0.0,-5.9604644775390625e-06,6.9510363278929e-06
157,7.8,0.006414701696485281,0.0,0.3893088400363922,0.027206502854824066,0.0,-0.04534423351287842,0.05287998954730335,2.2724270820617676e-06,0.0,-5.9604644775390625e-06,6.378954587649357e-06
158,7.85,0.00777503103017807,0.0,0.3870416283607483,0.027206581085920334,0.0,-0.04534393548965454,0.05287977435019456,1.4901161193847656e-06,0.0,1.1920928955078125e-05,1.2013700229374393e-05
159,7.9,0.009135359898209572,0.0,0.38477444648742676,0.027206195518374443,0.0,-0.045343637466430664,0.0528793202869254,-1.5348196029663086e-05,0.0,5.9604644775390625e-06,1.6464940271770523e-05
160,7.95,0.010495650582015514,0.0,0.3825072646141052,0.027206270024180412,0.0,-0.04534423351287842,0.05287986956539163,1.0617077350616455e-05,0.0,-2.384185791015625e-05,2.609897546029447e-05
161,8.0,0.011855986900627613,0.0,0.3802400231361389,0.027206484228372574,0.0,-0.04534423351287842,0.05287997964055031,-5.587935447692871e-07,0.0,1.1920928955078125e-05,1.1934018492431452e-05
162,8.05,0.013216299004852772,0.0,0.3779728412628174,0.027206335216760635,0.0,-0.04534393548965454,0.05287964776325088,-1.1175870895385742e-06,0.0,0.0,1.1175870895385742e-06
163,8.1,0.014576620422303677,0.0,0.37570562958717346,0.02720641903579235,0.0,-0.04534393548965454,0.052879690692770084,1.4901161193847656e-06,0.0,5.9604644775390625e-06,6.143906154658885e-06
164,8.15,0.015936940908432007,0.0,0.37343844771385193,0.027206456288695335,0.0,-0.04534393548965454,0.05287970995600456,1.6763806343078613e-06,0.0,-5.9604644775390625e-06,6.191719375027218e-06
165,8.2,0.01729726605117321,0.0,0.371171236038208,0.027206335216760635,0.0,-0.04534393548965454,0.05287964776325088,-5.774199962615967e-06,0.0,5.9604644775390625e-06,8.298706043491314e-06
166,8.25,0.01865757443010807,0.0,0.3689040541648865,0.027206186205148697,0.0,-0.045343637466430664,0.05287931588386856,-2.60770320892334e-06,0.0,5.9604644775390625e-06,6.50593981019146e-06
167,8.3,0.02001788467168808,0.0,0.36663687229156494,0.027206391096115112,0.0,-0.04534393548965454,0.052879676382934226,7.82310962677002e-06,0.0,-1.1920928955078125e-05,1.4258667237315056e-05
168,8.35,0.02137821353971958,0.0,0.364369660615921,0.027206391096115112,0.0,-0.045343637466430664,0.05287942100675071,-3.725290298461914e-06,0.0,1.7881393432617188e-05,1.82653228523303e-05
169,8.4,0.02273852378129959,0.0,0.3621025085449219,0.027206409722566605,0.0,-0.045344531536102295,0.05288019703831554,4.470348358154297e-06,0.0,-4.76837158203125e-05,4.789280498024284e-05
170,8.45,0.024098854511976242,0.0,0.3598352074623108,0.027206242084503174,0.0,-0.04534423351287842,0.05287985525560417,-1.080334186553955e-05,0.0,4.172325134277344e-05,4.3099209947236444e-05
171,8.5,0.02545914798974991,0.0,0.35756808519363403,0.027206186205148697,0.0,-0.04534333944320679,0.05287906050594403,5.21540641784668e-06,0.0,0.0,5.21540641784668e-06
172,8.55,0.026819473132491112,0.0,0.3553008735179901,0.027206391096115112,0.0,-0.04534393548965454,0.052879676382934226,1.862645149230957e-06,0.0,-5.9604644775390625e-06,6.244724472701627e-06
173,8.6,0.02817978709936142,0.0,0.3530336916446686,0.027206428349018097,0.0,-0.045343637466430664,0.052879440270083414,3.725290298461914e-06,0.0,5.9604644775390625e-06,7.028863677424642e-06
174,8.65,0.02954011596739292,0.0,0.35076650977134705,0.027206353843212128,0.0,-0.04534393548965454,0.05287965711968753,-5.9604644775390625e-06,0.0,-1.1920928955078125e-05,1.3328003749250112e-05
175,8.7,0.030900422483682632,0.0,0.3484992980957031,0.02720644697546959,0.0,-0.04534423351287842,0.052879960377414076,8.195638656616211e-06,0.0,-5.9604644775390625e-06,1.0133885226201596e-05
176,8.75,0.03226076066493988,0.0,0.3462320864200592,0.027206391096115112,0.0,-0.04534393548965454,0.052879676382934226,-8.568167686462402e-06,0.0,1.1920928955078125e-05,1.468066908064338e-05
177,8.8,0.033621061593294144,0.0,0.34396490454673767,0.027206316590309143,0.0,-0.04534393548965454,0.052879637856433806,4.470348358154297e-06,0.0,-5.9604644775390625e-06,7.450580596923828e-06
178,8.85,0.034981392323970795,0.0,0.34169769287109375,0.02720646560192108,0.0,-0.04534393548965454,0.05287971490940657,0.0,0.0,5.9604644775390625e-06,5.9604644775390625e-06
179,8.9,0.03634170815348625,0.0,0.3394305109977722,0.027206391096115112,0.0,-0.04534423351287842,0.05287993175788444,0.0,0.0,-1.7881393432617188e-05,1.7881393432617188e-05
180,8.95,0.037702031433582306,0.0,0.3371632695198059,0.02720668911933899,0.0,-0.045344531536102295,0.05288034068546244,1.043081283569336e-05,0.0,0.0,1.043081283569336e-05
181,9.0,0.03906237706542015,0.0,0.334896057844162,0.027206577360630035,0.0,-0.04534423351287842,0.052880027523172814,-8.940696716308594e-06,0.0,5.9604644775390625e-06,1.0745380149674383e-05
182,9.05,0.04042268916964531,0.0,0.33262884616851807,0.027206391096115112,0.0,-0.04534393548965454,0.052879676382934226,-7.450580596923828e-07,0.0,1.1920928955078125e-05,1.1944189326376763e-05
183,9.1,0.04178301617503166,0.0,0.33036166429519653,0.027206242084503174,0.0,-0.04534333944320679,0.05287908912594521,-8.940696716308594e-06,0.0,1.7881393432617188e-05,1.999200562387517e-05
184,9.15,0.04314331337809563,0.0,0.3280945122241974,0.02720620483160019,0.0,-0.04534393548965454,0.05287958061700993,4.470348358154297e-06,0.0,-2.9802322387695312e-05,3.0135733509297198e-05
185,9.2,0.04450363665819168,0.0,0.3258272707462311,0.027206316590309143,0.0,-0.04534423351287842,0.05287989323157008,-7.450580596923828e-07,0.0,5.9604644775390625e-06,6.006850114687196e-06
186,9.25,0.04586394503712654,0.0,0.32356008887290955,0.02720654010772705,0.0,-0.04534423351287842,0.052880008260054026,1.1920928955078125e-05,0.0,-1.1920928955078125e-05,1.6858739404357613e-05
187,9.3,0.047224290668964386,0.0,0.32129284739494324,0.027206577360630035,0.0,-0.04534423351287842,0.052880027523172814,-5.9604644775390625e-06,0.0,1.1920928955078125e-05,1.3328003749250112e-05
188,9.35,0.048584602773189545,0.0,0.3190256655216217,0.027206428349018097,0.0,-0.04534393548965454,0.0528796956461739,7.450580596923828e-07,0.0,0.0,7.450580596923828e-07
189,9.4,0.049944933503866196,0.0,0.3167584538459778,0.027206242084503174,0.0,-0.045343637466430664,0.05287934450373152,-1.1175870895385742e-05,0.0,1.7881393432617188e-05,2.1086591032273928e-05
190,9.45,0.05130522698163986,0.0,0.31449130177497864,0.02720620483160019,0.0,-0.045343637466430664,0.05287932524036392,5.9604644775390625e-06,0.0,-1.1920928955078125e-05,1.3328003749250112e-05
191,9.5,0.052665553987026215,0.0,0.3122240900993347,0.02720620483160019,0.0,-0.04534333944320679,0.05287906986248458,-6.705522537231445e-06,0.0,2.384185791015625e-05,2.476687750010887e-05
192,9.55,0.05402584746479988,0.0,0.30995696783065796,0.02720646560192108,0.0,-0.04534423351287842,0.05287997028417073,1.7136335372924805e-05,0.0,-5.364418029785156e-05,5.6314758898904645e-05
193,9.6,0.05538620054721832,0.0,0.3076896667480469,0.027206502854824066,0.0,-0.04534482955932617,0.05288050029294578,-1.043081283569336e-05,0.0,1.1920928955078125e-05,1.584015162696637e-05
194,9.65,0.05674649775028229,0.0,0.30542248487472534,0.027206242084503174,0.0,-0.04534393548965454,0.0528795998802845,7.450580596923828e-07,0.0,1.1920928955078125e-05,1.1944189326376763e-05
195,9.7,0.05810682475566864,0.0,0.3031552731990814,0.02720661461353302,0.0,-0.04534423351287842,0.05288004678628458,8.940696716308594e-06,0.0,-5.9604644775390625e-06,1.0745380149674383e-05
196,9.75,0.05946715921163559,0.0,0.3008880615234375,0.027206726372241974,0.0,-0.045344531536102295,0.05288035994846013,2.9802322387695312e-06,0.0,-1.1920928955078125e-05,1.228781230931777e-05
197,9.8,0.06082749739289284,0.0,0.2986208200454712,0.02720646560192108,0.0,-0.045343637466430664,0.05287945953340911,-1.1175870895385742e-05,0.0,4.172325134277344e-05,4.319409442137403e-05
198,9.85,0.0621878057718277,0.0,0.29635369777679443,0.027206428349018097,0.0,-0.045343637466430664,0.052879440270083414,4.470348358154297e-06,0.0,-2.384185791015625e-05,2.425733297482089e-05
199,9.9,0.06354814022779465,0.0,0.2940864562988281,0.02720668911933899,0.0,-0.045344531536102295,0.05288034068546244,5.21540641784668e-06,0.0,-1.1920928955078125e-05,1.301187962038292e-05
200,9.95,0.0649084746837616,0.0,0.2918192446231842,0.02720661461353302,0.0,-0.04534423351287842,0.05288004678628458,-2.9802322387695312e-06,0.0,5.9604644775390625e-06,6.664001874625056e-06
201,10.0,0.06626880168914795,0.0,0.2895520329475403,0.02720654010772705,0.0,-0.045344531536102295,0.05288026363340151,-1.4901161193847656e-06,0.0,-1.1920928955078125e-05,1.2013700229374393e-05
202,10.05,0.0676291286945343,0.0,0.287284791469574,0.027206242084503174,0.0,-0.04534423351287842,0.05287985525560417,-1.1920928955078125e-05,0.0,1.7881393432617188e-05,2.1490760299348767e-05
203,10.1,0.06898942589759827,0.0,0.28501760959625244,0.027206242084503174,0.0,-0.045343637466430664,0.05287934450373152,5.9604644775390625e-06,0.0,1.1920928955078125e-05,1.3328003749250112e-05
204,10.15,0.07034975290298462,0.0,0.2827504277229309,0.02720654010772705,0.0,-0.04534423351287842,0.052880008260054026,5.9604644775390625e-06,0.0,-2.384185791015625e-05,2.457562461863554e-05
205,10.2,0.07171007990837097,0.0,0.2804831862449646,0.02720654010772705,0.0,-0.04534423351287842,0.052880008260054026,0.0,0.0,1.1920928955078125e-05,1.1920928955078125e-05
206,10.25,0.07307040691375732,0.0,0.27821600437164307,0.027206242084503174,0.0,-0.04534333944320679,0.05287908912594521,-1.1920928955078125e-05,0.0,2.384185791015625e-05,2.6656007498500224e-05
207,10.3,0.07443070411682129,0.0,0.2759488523006439,0.027206167578697205,0.0,-0.045343637466430664,0.0528793059769893,2.9802322387695312e-06,0.0,-1.7881393432617188e-05,1.8128044993574082e-05
208,10.35,0.07579102367162704,0.0,0.273681640625,0.027206093072891235,0.0,-0.045343637466430664,0.05287926800060165,-7.450580596923828e-06,0.0,1.1920928955078125e-05,1.4057727354849284e-05
209,10.4,0.07715131342411041,0.0,0.27141448855400085,0.027206242084503174,0.0,-0.045343637466430664,0.05287934450373152,1.1920928955078125e-05,0.0,-1.1920928955078125e-05,1.6858739404357613e-05
210,10.45,0.07851164788007736,0.0,0.26914727687835693,0.027206912636756897,0.0,-0.04534512758255005,0.052880966454113075,1.7881393432617188e-05,0.0,-4.76837158203125e-05,5.092623081992585e-05
211,10.5,0.0798720046877861,0.0,0.26687997579574585,0.02720654010772705,0.0,-0.045344531536102295,0.05288026363340151,-1.9371509552001953e-05,0.0,4.172325134277344e-05,4.600092482695917e-05
212,10.55,0.08123230189085007,0.0,0.2646128237247467,0.027206167578697205,0.0,-0.045343637466430664,0.0528793059769893,-2.9802322387695312e-06,0.0,5.9604644775390625e-06,6.664001874625056e-06
213,10.6,0.08259262144565582,0.0,0.2623456120491028,0.02720646560192108,0.0,-0.045344531536102295,0.052880225657701604,7.450580596923828e-06,0.0,-2.384185791015625e-05,2.497889789080651e-05
214,10.65,0.08395294845104218,0.0,0.2600783705711365,0.02720654010772705,0.0,-0.04534423351287842,0.052880008260054026,1.4901161193847656e-06,0.0,1.7881393432617188e-05,1.7943374184954608e-05
215,10.7,0.08531327545642853,0.0,0.25781118869781494,0.027206316590309143,0.0,-0.04534333944320679,0.05287912710246132,-8.940696716308594e-06,0.0,2.384185791015625e-05,2.5463115409962925e-05
216,10.75,0.08667358011007309,0.0,0.2555440366268158,0.02720661461353302,0.0,-0.04534423351287842,0.05288004678628458,1.6391277313232422e-05,0.0,-4.172325134277344e-05,4.482748793509997e-05
217,10.8,0.08803393691778183,0.0,0.2532767653465271,0.02720661461353302,0.0,-0.045344531536102295,0.05288030215944601,-1.043081283569336e-05,0.0,1.1920928955078125e-05,1.584015162696637e-05
218,10.85,0.08939424157142639,0.0,0.25100958347320557,0.027206316590309143,0.0,-0.0453437864780426,0.052879510168403185,-1.4901161193847656e-06,0.0,1.1920928955078125e-05,1.2013700229374393e-05
219,10.9,0.09075456857681274,0.0,0.24874238669872284,0.027206316590309143,0.0,-0.045343637466430664,0.05287938248006423,-4.470348358154297e-06,0.0,8.940696716308594e-06,9.996002811937585e-06
220,10.95,0.0921148732304573,0.0,0.2464752197265625,0.027206316590309143,0.0,-0.045343637466430664,0.05287938248006423,4.470348358154297e-06,0.0,-5.9604644775390625e-06,7.450580596923828e-06
221,11.0,0.09347520023584366,0.0,0.24420802295207977,0.027206167578697205,0.0,-0.045343637466430664,0.0528793059769893,-1.043081283569336e-05,0.0,5.9604644775390625e-06,1.2013700229374393e-05
222,11.05,0.09483548998832703,0.0,0.24194085597991943,0.02720654010772705,0.0,-0.04534423351287842,0.052880008260054026,2.2351741790771484e-05,0.0,-2.9802322387695312e-05,3.725290298461914e-05
223,11.1,0.09619585424661636,0.0,0.23967359960079193,0.02720661461353302,0.0,-0.04534423351287842,0.05288004678628458,-1.1920928955078125e-05,0.0,1.7881393432617188e-05,2.1490760299348767e-05
224,11.15,0.09755615144968033,0.0,0.2374064326286316,0.027206167578697205,0.0,-0.0453437864780426,0.05287943366551299,-4.470348358154297e-06,0.0,0.0,4.470348358154297e-06
225,11.2,0.09891647100448608,0.0,0.23513922095298767,0.02720646560192108,0.0,-0.04534423351287842,0.05287997028417073,7.450580596923828e-06,0.0,-8.940696716308594e-06,1.1638178938488148e-05
226,11.25,0.10027679800987244,0.0,0.23287200927734375,0.02720661461353302,0.0,-0.045344382524490356,0.05288017447301945,4.470348358154297e-06,0.0,-5.9604644775390625e-06,7.450580596923828e-06
227,11.3,0.10163713246583939,0.0,0.23060478270053864,0.027206316590309143,0.0,-0.0453437864780426,0.052879510168403185,-1.341104507446289e-05,0.0,2.682209014892578e-05,2.9988008435812753e-05
228,11.35,0.10299742966890335,0.0,0.2283376306295395,0.027206167578697205,0.0,-0.0453437864780426,0.05287943366551299,1.4901161193847656e-06,0.0,-1.4901161193847656e-05,1.4975481660844222e-05
229,11.4,0.1043577492237091,0.0,0.22607040405273438,0.02720646560192108,0.0,-0.045344382524490356,0.05288009797109033,7.450580596923828e-06,0.0,-8.940696716308594e-06,1.1638178938488148e-05
230,11.45,0.10571807622909546,0.0,0.22380319237709045,0.02720654010772705,0.0,-0.04534408450126648,0.05287988057291781,1.4901161193847656e-06,0.0,8.940696716308594e-06,9.064022496787041e-06
231,11.5,0.10707840323448181,0.0,0.22153599560260773,0.02720646560192108,0.0,-0.04534408450126648,0.05287984259694281,-2.9802322387695312e-06,0.0,-2.9802322387695312e-06,4.214684851089403e-06
232,11.55,0.10843872278928757,0.0,0.2192687839269638,0.027206093072891235,0.0,-0.0453437864780426,0.05287939568921704,-1.341104507446289e-05,0.0,1.4901161193847656e-05,2.0047462056687043e-05
233,11.6,0.10979901254177094,0.0,0.21700161695480347,0.027206167578697205,0.0,-0.0453437864780426,0.05287943366551299,8.940696716308594e-06,0.0,-8.940696716308594e-06,1.264405455326821e-05
234,11.65,0.11115933954715729,0.0,0.21473440527915955,0.02720654010772705,0.0,-0.04534408450126648,0.05287988057291781,7.450580596923828e-06,0.0,-2.9802322387695312e-06,8.024520884654677e-06
235,11.7,0.11251966655254364,0.0,0.21246720850467682,0.02720654010772705,0.0,-0.04534423351287842,0.052880008260054026,0.0,0.0,-8.940696716308594e-06,8.940696716308594e-06
236,11.75,0.11387999355792999,0.0,0.2101999819278717,0.027206391096115112,0.0,-0.0453437864780426,0.05287954869499663,-5.9604644775390625e-06,0.0,2.384185791015625e-05,2.457562461863554e-05
237,11.8,0.11524030566215515,0.0,0.20793282985687256,0.02720646560192108,0.0,-0.045343637466430664,0.05287945953340911,5.9604644775390625e-06,0.0,-8.940696716308594e-06,1.0745380149674383e-05
238,11.85,0.1166006401181221,0.0,0.20566561818122864,0.027206316590309143,0.0,-0.0453437864780426,0.052879510168403185,-1.043081283569336e-05,0.0,5.9604644775390625e-06,1.2013700229374393e-05
239,11.9,0.11796093732118607,0.0,0.2033984512090683,0.027206167578697205,0.0,-0.04534393548965454,0.05287956135372835,1.4901161193847656e-06,0.0,-1.4901161193847656e-05,1.4975481660844222e-05
240,11.95,0.11932125687599182,0.0,0.20113122463226318,0.02720654010772705,0.0,-0.045344382524490356,0.05288013594688193,1.043081283569336e-05,0.0,-5.9604644775390625e-06,1.2013700229374393e-05
241,12.0,0.12068159133195877,0.0,0.19886401295661926,0.02720661461353302,0.0,-0.04534408450126648,0.05287991909924139,0.0,0.0,8.940696716308594e-06,8.940696716308594e-06
242,12.05,0.12204191833734512,0.0,0.19659681618213654,0.02720654010772705,0.0,-0.04534423351287842,0.052880008260054026,-1.4901161193847656e-06,0.0,-8.940696716308594e-06,9.064022496787041e-06
243,12.1,0.12340224534273148,0.0,0.19432958960533142,0.02720661461353302,0.0,-0.045344382524490356,0.05288017447301945,2.9802322387695312e-06,0.0,0.0,2.9802322387695312e-06
244,12.15,0.12476257979869843,0.0,0.1920623779296875,0.02720661461353302,0.0,-0.04534423351287842,0.05288004678628458,-1.4901161193847656e-06,0.0,2.9802322387695312e-06,3.332000937312528e-06
245,12.2,0.12612290680408478,0.0,0.18979516625404358,0.02720654010772705,0.0,-0.04534423351287842,0.052880008260054026,-1.4901161193847656e-06,0.0,0.0,1.4901161193847656e-06
246,12.25,0.12748323380947113,0.0,0.18752795457839966,0.027206242084503174,0.0,-0.04534393548965454,0.0528795998802845,-1.1920928955078125e-05,0.0,1.1920928955078125e-05,1.6858739404357613e-05
247,12.3,0.1288435310125351,0.0,0.18526077270507812,0.02720579504966736,0.0,-0.045343488454818726,0.05287898675433113,-1.1920928955078125e-05,0.0,1.1920928955078125e-05,1.6858739404357613e-05
248,12.35,0.13020381331443787,0.0,0.18299360573291779,0.02720654010772705,0.0,-0.04534423351287842,0.052880008260054026,3.2782554626464844e-05,0.0,-3.2782554626464844e-05,4.636153336198344e-05
249,12.4,0.1315641850233078,0.0,0.18072634935379028,0.02720654010772705,0.0,-0.045344382524490356,0.05288013594688193,-1.7881393432617188e-05,0.0,1.1920928955078125e-05,2.1490760299348767e-05
250,12.45,0.13292446732521057,0.0,0.17845916748046875,0.02720654010772705,0.0,-0.045344382524490356,0.05288013594688193,1.7881393432617188e-05,0.0,-1.4901161193847656e-05,2.3276357876976296e-05
251,12.5,0.1342848390340805,0.0,0.17619191110134125,0.02720668911933899,0.0,-0.04534408450126648,0.052879957625536905,-1.1920928955078125e-05,0.0,2.682209014892578e-05,2.935188353596957e-05
252,12.55,0.13564513623714447,0.0,0.1739247590303421,0.027206093072891235,0.0,-0.04534304141998291,0.05287875724305675,-8.940696716308594e-06,0.0,2.086162567138672e-05,2.269677253324958e-05
253,12.6,0.13700544834136963,0.0,0.17165760695934296,0.027206391096115112,0.0,-0.045343637466430664,0.05287942100675071,8.940696716308594e-06,0.0,-2.384185791015625e-05,2.5463115409962925e-05
254,12.65,0.13836577534675598,0.0,0.16939039528369904,0.02720654010772705,0.0,-0.04534423351287842,0.052880008260054026,2.9802322387695312e-06,0.0,-1.1920928955078125e-05,1.228781230931777e-05
255,12.7,0.13972610235214233,0.0,0.16712318360805511,0.02720654010772705,0.0,-0.045344382524490356,0.05288013594688193,0.0,0.0,-5.9604644775390625e-06,5.9604644775390625e-06
256,12.75,0.1410864293575287,0.0,0.16485595703125,0.02720654010772705,0.0,-0.045344382524490356,0.05288013594688193,0.0,0.0,2.9802322387695312e-06,2.9802322387695312e-06
257,12.8,0.14244675636291504,0.0,0.16258874535560608,0.027206093072891235,0.0,-0.045343637466430664,0.05287926800060165,-1.7881393432617188e-05,0.0,2.682209014892578e-05,3.2236140449023154e-05
258,12.85,0.1438070386648178,0.0,0.16032159328460693,0.027206242084503174,0.0,-0.0453437864780426,0.05287947219216217,1.4901161193847656e-05,0.0,-1.7881393432617188e-05,2.3276357876976296e-05
259,12.9,0.14516738057136536,0.0,0.15805436670780182,0.027206391096115112,0.0,-0.04534393548965454,0.052879676382934226,-5.9604644775390625e-06,0.0,8.940696716308594e-06,1.0745380149674383e-05
260,12.95,0.14652767777442932,0.0,0.15578719973564148,0.027206987142562866,0.0,-0.04534482955932617,0.052880749059510984,3.2782554626464844e-05,0.0,-4.76837158203125e-05,5.786564302130818e-05
261,13.0,0.14788807928562164,0.0,0.1535198837518692,0.027206838130950928,0.0,-0.04534482955932617,0.052880672558413104,-2.682209014892578e-05,0.0,2.9802322387695312e-05,4.0094924113374086e-05
262,13.05,0.14924836158752441,0.0,0.15125271677970886,0.027206093072891235,0.0,-0.0453437864780426,0.05287939568921704,-5.9604644775390625e-06,0.0,1.1920928955078125e-05,1.3328003749250112e-05
263,13.1,0.15060868859291077,0.0,0.14898550510406494,0.027206242084503174,0.0,-0.045343488454818726,0.05287921681499253,-2.9802322387695312e-06,0.0,2.086162567138672e-05,2.1073424255447017e-05
264,13.15,0.15196898579597473,0.0,0.146718367934227,0.02720654010772705,0.0,-0.04534408450126648,0.05287988057291781,1.7881393432617188e-05,0.0,-3.8743019104003906e-05,4.267043192170964e-05
265,13.2,0.15332934260368347,0.0,0.1444510966539383,0.02720654010772705,0.0,-0.04534423351287842,0.052880008260054026,-1.1920928955078125e-05,0.0,2.086162567138672e-05,2.4027400458748785e-05
266,13.25,0.15468963980674744,0.0,0.14218394458293915,0.027205944061279297,0.0,-0.04534319043159485,0.05287880787872331,-1.1920928955078125e-05,0.0,1.7881393432617188e-05,2.1490760299348767e-05
267,13.3,0.1560499370098114,0.0,0.1399167776107788,0.027206242084503174,0.0,-0.0453437864780426,0.05287947219216217,1.1920928955078125e-05,0.0,-2.086162567138672e-05,2.4027400458748785e-05
268,13.35,0.15741026401519775,0.0,0.1376495659351349,0.02720654010772705,0.0,-0.04534423351287842,0.052880008260054026,5.9604644775390625e-06,0.0,-8.940696716308594e-06,1.0745380149674383e-05
269,13.4,0.1587705910205841,0.0,0.13538235425949097,0.027206242084503174,0.0,-0.04534393548965454,0.0528795998802845,-1.1920928955078125e-05,0.0,1.1920928955078125e-05,1.6858739404357613e-05
270,13.45,0.16013088822364807,0.0,0.13311517238616943,0.027206242084503174,0.0,-0.04534393548965454,0.0528795998802845,5.9604644775390625e-06,0.0,-5.9604644775390625e-06,8.429369702178807e-06
271,13.5,0.16149121522903442,0.0,0.1308479607105255,0.02720654010772705,0.0,-0.045344382524490356,0.05288013594688193,5.9604644775390625e-06,0.0,-1.1920928955078125e-05,1.3328003749250112e-05
272,13.55,0.16285154223442078,0.0,0.1285807341337204,0.027206838130950928,0.0,-0.04534482955932617,0.052880672558413104,1.1920928955078125e-05,0.0,-1.4901161193847656e-05,1.9082797281243946e-05
273,13.6,0.16421189904212952,0.0,0.1263134777545929,0.02720654010772705,0.0,-0.04534415900707245,0.05287994441652446,-1.7881393432617188e-05,0.0,3.2782554626464844e-05,3.7342202920143805e-05
274,13.65,0.16557219624519348,0.0,0.12404631823301315,0.027206242084503174,0.0,-0.045343637466430664,0.05287934450373152,0.0,0.0,1.4901161193847656e-06,1.4901161193847656e-06
275,13.7,0.16693252325057983,0.0,0.12177911400794983,0.02720654010772705,0.0,-0.04534415900707245,0.05287994441652446,5.9604644775390625e-06,0.0,-1.1920928955078125e-05,1.3328003749250112e-05
276,13.75,0.1682928502559662,0.0,0.11951190233230591,0.027206242084503174,0.0,-0.0453437864780426,0.05287947219216217,-1.1920928955078125e-05,0.0,1.6391277313232422e-05,2.026777045240319e-05
277,13.8,0.16965314745903015,0.0,0.11724473536014557,0.027206242084503174,0.0,-0.045343637466430664,0.05287934450373152,5.9604644775390625e-06,0.0,-2.9802322387695312e-06,6.664001874625056e-06
278,13.85,0.1710134744644165,0.0,0.11497753858566284,0.027206093072891235,0.0,-0.045343637466430664,0.05287926800060165,-1.1920928955078125e-05,0.0,5.9604644775390625e-06,1.3328003749250112e-05
279,13.9,0.17237375676631927,0.0,0.1127103716135025,0.02720654010772705,0.0,-0.045344382524490356,0.05288013594688193,2.682209014892578e-05,0.0,-3.5762786865234375e-05,4.470348358154297e-05
280,13.95,0.1737341284751892,0.0,0.1104431003332138,0.02720668911933899,0.0,-0.04534423351287842,0.052880085312487064,-1.1920928955078125e-05,0.0,2.682209014892578e-05,2.935188353596957e-05
281,14.0,0.17509442567825317,0.0,0.10817594826221466,0.027206093072891235,0.0,-0.04534319043159485,0.052878884932905476,-8.940696716308594e-06,0.0,1.7881393432617188e-05,1.999200562387517e-05
282,14.05,0.17645473778247833,0.0,0.10590878129005432,0.027206242084503174,0.0,-0.0453437864780426,0.05287947219216217,2.9802322387695312e-06,0.0,-2.086162567138672e-05,2.1073424255447017e-05
283,14.1,0.1778150498867035,0.0,0.1036415696144104,0.027206391096115112,0.0,-0.04534423351287842,0.05287993175788444,5.9604644775390625e-06,0.0,-8.940696716308594e-06,1.0745380149674383e-05
284,14.15,0.17917537689208984,0.0,0.10137435793876648,0.027206838130950928,0.0,-0.0453447550535202,0.052880608715685555,1.4901161193847656e-05,0.0,-2.086162567138672e-05,2.5636927089222153e-05
285,14.2,0.18053573369979858,0.0,0.09910709410905838,0.02720654010772705,0.0,-0.04534423351287842,0.052880008260054026,-1.7881393432617188e-05,0.0,3.129243850708008e-05,3.604110068812318e-05
286,14.25,0.18189603090286255,0.0,0.09683993458747864,0.02720654010772705,0.0,-0.04534415900707245,0.05287994441652446,1.1920928955078125e-05,0.0,-1.7881393432617188e-05,2.1490760299348767e-05
287,14.3,0.1832563877105713,0.0,0.09457267820835114,0.02720654010772705,0.0,-0.04534408450126648,0.05287988057291781,-1.1920928955078125e-05,0.0,2.2351741790771484e-05,2.5331974029541016e-05
288,14.35,0.18461668491363525,0.0,0.09230552613735199,0.027205944061279297,0.0,-0.04534319043159485,0.05287880787872331,-1.1920928955078125e-05,0.0,1.4901161193847656e-05,1.9082797281243946e-05
289,14.4,0.18597698211669922,0.0,0.09003835916519165,0.027206242084503174,0.0,-0.0453437864780426,0.05287947219216217,1.1920928955078125e-05,0.0,-2.086162567138672e-05,2.4027400458748785e-05
290,14.45,0.18733730912208557,0.0,0.08777114748954773,0.02720654010772705,0.0,-0.04534423351287842,0.052880008260054026,5.9604644775390625e-06,0.0,-8.940696716308594e-06,1.0745380149674383e-05
291,14.5,0.18869763612747192,0.0,0.08550393581390381,0.02720654010772705,0.0,-0.04534423351287842,0.052880008260054026,0.0,0.0,0.0,0.0
292,14.55,0.19005796313285828,0.0,0.08323672413825989,0.027206242084503174,0.0,-0.04534371197223663,0.052879408347985386,-1.1920928955078125e-05,0.0,2.086162567138672e-05,2.4027400458748785e-05
293,14.6,0.19141826033592224,0.0,0.08096956461668015,0.027205944061279297,0.0,-0.04534326493740082,0.05287887172362508,-5.9604644775390625e-06,0.0,7.450580596923828e-06,9.541398640621973e-06
294,14.65,0.1927785575389862,0.0,0.0787023976445198,0.02720654010772705,0.0,-0.04534423351287842,0.052880008260054026,2.384185791015625e-05,0.0,-3.725290298461914e-05,4.422909641163298e-05
295,14.7,0.19413891434669495,0.0,0.0764351412653923,0.02720654010772705,0.0,-0.04534415900707245,0.05287994441652446,-1.1920928955078125e-05,0.0,2.086162567138672e-05,2.4027400458748785e-05
296,14.75,0.1954992115497589,0.0,0.07416798174381256,0.02720668911933899,0.0,-0.04534430801868439,0.052880149155846524,1.7881393432617188e-05,0.0,-2.5331974029541016e-05,3.100730783743383e-05
297,14.8,0.19685958325862885,0.0,0.07190071046352386,0.02720654010772705,0.0,-0.04534423351287842,0.052880008260054026,-2.086162567138672e-05,0.0,2.5331974029541016e-05,3.281640342704242e-05
298,14.85,0.19821986556053162,0.0,0.06963355839252472,0.027206391096115112,0.0,-0.04534423351287842,0.05287993175788444,1.1920928955078125e-05,0.0,-2.384185791015625e-05,2.6656007498500224e-05
299,14.9,0.19958022236824036,0.0,0.06736628711223602,0.027206391096115112,0.0,-0.04534423351287842,0.05287993175788444,-1.4901161193847656e-05,0.0,2.384185791015625e-05,2.811545470969857e-05
300,14.95,0.20094050467014313,0.0,0.06509913504123688,0.02720579504966736,0.0,-0.04534304141998291,0.05287860368459753,-8.940696716308594e-06,0.0,2.384185791015625e-05,2.5463115409962925e-05
301,15.0,0.2023008018732071,0.0,0.06283198297023773,0.02720654010772705,0.0,-0.04534415900707245,0.05287994441652446,2.682209014892578e-05,0.0,-4.470348358154297e-05,5.213277245919675e-05
302,15.05,0.20366115868091583,0.0,0.06056471914052963,0.02720654010772705,0.0,-0.04534430801868439,0.052880072103506516,-1.1920928955078125e-05,0.0,1.6391277313232422e-05,2.026777045240319e-05
303,15.1,0.2050214558839798,0.0,0.05829755216836929,0.027206391096115112,0.0,-0.0453437864780426,0.05287954869499663,5.9604644775390625e-06,0.0,1.4901161193847656e-06,6.143906154658885e-06
304,15.15,0.20638179779052734,0.0,0.05603034049272537,0.02720654010772705,0.0,-0.0453437864780426,0.0528796251977204,-2.9802322387695312e-06,0.0,8.940696716308594e-06,9.424321830774485e-06
305,15.2,0.2077421098947525,0.0,0.05376317352056503,0.02720654010772705,0.0,-0.045344382524490356,0.05288013594688193,5.9604644775390625e-06,0.0,-3.2782554626464844e-05,3.332000937312528e-05
306,15.25,0.20910245180130005,0.0,0.05149590224027634,0.02720654010772705,0.0,-0.04534434527158737,0.0528801051259517,-5.9604644775390625e-06,0.0,2.2351741790771484e-05,2.313282295504216e-05
307,15.3,0.2104627639055252,0.0,0.049228738993406296,0.027206093072891235,0.0,-0.04534326493740082,0.052878948777714214,-1.1920928955078125e-05,0.0,2.16066837310791e-05,2.4677060785411587e-05
308,15.35,0.21182306110858917,0.0,0.046961575746536255,0.02720654010772705,0.0,-0.04534430801868439,0.052880072103506516,2.086162567138672e-05,0.0,-4.172325134277344e-05,4.664801312237539e-05
309,15.4,0.2131834179162979,0.0,0.04469430819153786,0.02720668911933899,0.0,-0.04534490406513214,0.05288065989994739,-5.9604644775390625e-06,0.0,-2.9802322387695312e-06,6.664001874625056e-06
310,15.45,0.21454373002052307,0.0,0.04242708534002304,0.02720654010772705,0.0,-0.04534449428319931,0.052880232812545704,2.9802322387695312e-06,0.0,7.450580596923828e-06,8.024520884654677e-06
311,15.5,0.21590407192707062,0.0,0.040159858763217926,0.027206242084503174,0.0,-0.04534386098384857,0.05287953603626188,-1.7881393432617188e-05,0.0,2.60770320892334e-05,3.161891575742207e-05
312,15.55,0.2172643542289734,0.0,0.037892699241638184,0.02720579504966736,0.0,-0.04534319043159485,0.05287873137481707,-5.9604644775390625e-06,0.0,1.341104507446289e-05,1.4675941767984785e-05
313,15.6,0.21862465143203735,0.0,0.03562553972005844,0.02720654010772705,0.0,-0.04534419625997543,0.052879977439049375,2.682209014892578e-05,0.0,-4.023313522338867e-05,4.835421067353473e-05
314,15.65,0.2199850082397461,0.0,0.03335827961564064,0.02720654010772705,0.0,-0.045344214886426926,0.05287999284955395,-1.1920928955078125e-05,0.0,1.9371509552001953e-05,2.2745635393967848e-05
315,15.7,0.22134530544281006,0.0,0.03109111823141575,0.02720654010772705,0.0,-0.04534374922513962,0.052879594376492485,1.1920928955078125e-05,0.0,-1.1175870895385742e-06,1.197320124506071e-05
316,15.75,0.2227056622505188,0.0,0.02882390469312668,0.02720668911933899,0.0,-0.045344382524490356,0.05288021299912891,-5.9604644775390625e-06,0.0,-1.4901161193847656e-05,1.6049041769309354e-05
317,15.8,0.22406597435474396,0.0,0.026556679978966713,0.027206242084503174,0.0,-0.04534382373094559,0.05287950521498199,-8.940696716308594e-06,0.0,2.4586915969848633e-05,2.616204301428711e-05
318,15.85,0.22542628645896912,0.0,0.02428952232003212,0.027206093072891235,0.0,-0.045343656092882156,0.052879283411312976,-5.9604644775390625e-06,0.0,-6.705522537231445e-06,8.971687092477304e-06
319,15.9,0.22678658366203308,0.0,0.022022314369678497,0.027205944061279297,0.0,-0.04534358158707619,0.05287914251321371,-2.9802322387695312e-06,0.0,1.30385160446167e-05,1.3374777936202469e-05
320,15.95,0.22814688086509705,0.0,0.0197551641613245,0.027206987142562866,0.0,-0.04534464329481125,0.05288059055351622,4.172325134277344e-05,0.0,-5.4016709327697754e-05,6.82541910010311e-05
321,16.0,0.22950728237628937,0.0,0.017487850040197372,0.027207136154174805,0.0,-0.04534483700990677,0.05288083271526112,-1.4901161193847656e-05,0.0,2.4959444999694824e-05,2.906920190885574e-05
322,16.05,0.23086759448051453,0.0,0.01522068027406931,0.027206391096115112,0.0,-0.04534374177455902,0.05287951126916338,-1.1920928955078125e-05,0.0,1.5050172805786133e-05,1.9199381464933823e-05
323,16.1,0.23222792148590088,0.0,0.012953476049005985,0.027206093072891235,0.0,-0.0453435555100441,0.05287919755157842,-1.4901161193847656e-05,0.0,1.4379620552062988e-05,2.0707923414633915e-05
324,16.15,0.23358820378780365,0.0,0.010686324909329414,0.02720654010772705,0.0,-0.04534430056810379,0.05288006549901501,2.682209014892578e-05,0.0,-4.038214683532715e-05,4.8478266295186584e-05
325,16.2,0.23494857549667358,0.0,0.008419046178460121,0.027206391096115112,0.0,-0.04534435272216797,0.052880035228418366,-2.384185791015625e-05,0.0,2.3320317268371582e-05,3.3350732917067806e-05
326,16.25,0.23630884289741516,0.0,0.006151889450848103,0.02720564603805542,0.0,-0.04534297436475754,0.05287846993976971,-8.940696716308594e-06,0.0,3.069639205932617e-05,3.197193367991486e-05
327,16.3,0.23766914010047913,0.0,0.0038847485557198524,0.027205944061279297,0.0,-0.04534333199262619,0.0528789289638163,5.9604644775390625e-06,0.0,-1.735985279083252e-05,1.8354607751389857e-05
328,16.35,0.2390294373035431,0.0,0.0016175563214346766,0.023308545351028442,0.0,-0.03127079829573631,0.039001937946918565,-0.15589594841003418,0.0,0.5629116296768188,0.5841001998583419
329,16.4,0.23999999463558197,0.0,0.0007576687494292855,0.009705722332000732,0.0,0.017840567976236343,0.020309773714078598,-0.4661649465560913,0.0,1.682993769645691,1.7463613002194147
330,16.45,0.24000000953674316,0.0,0.0034016130957752466,-1.4901161193847656e-07,0.0,0.05287956818938255,0.05287956850887228,-0.19412636756896973,0.0,0.7007936239242554,0.7271841194646378
331,16.5,0.23999997973442078,0.0,0.0060456255450844765,-2.980232238769531e-07,0.0,0.05288137122988701,0.05288137152200464,2.9802322387695312e-06,0.0,5.841255187988281e-05,5.848852880109913e-05
332,16.55,0.23999997973442078,0.0,0.008689749985933304,2.980232238769531e-07,0.0,0.05288087576627731,0.052880876195024046,1.7881393432617188e-05,0.0,-4.209578037261963e-05,4.573618869420443e-05
333,16.6,0.24000000953674316,0.0,0.011333713307976723,2.980232238769531e-07,0.0,0.05287922918796539,0.05287922947464352,-5.9604644775390625e-06,0.0,-3.36766242980957e-05,3.420003159213592e-05
334,16.65,0.24000000953674316,0.0,0.013977672904729843,-2.980232238769531e-07,0.0,0.05287962034344673,0.05287962134590771,-1.7881393432617188e-05,0.0,1.6391277313232422e-05,2.425733297482089e-05
335,16.7,0.23999997973442078,0.0,0.016621675342321396,-1.4901161193847656e-07,0.0,0.052880048751831055,0.05288004843761807,1.1920928955078125e-05,0.0,8.568167686462402e-06,1.468066908064338e-05
336,16.75,0.23999999463558197,0.0,0.01926567777991295,1.4901161193847656e-07,0.0,0.05287922918796539,0.052879229474013655,2.9802322387695312e-06,0.0,-3.2782554626464844e-05,3.2917740992269697e-05
337,16.8,0.23999999463558197,0.0,0.021909598261117935,0.0,0.0,0.052879005670547485,0.05287900491705132,-2.9802322387695312e-06,0.0,7.450580596923828e-06,8.024520884654677e-06
338,16.85,0.23999999463558197,0.0,0.024553578346967697,0.0,0.0,0.05287898704409599,0.05287898730471668,0.0,0.0,-1.2665987014770508e-05,1.2665987014770508e-05
339,16.9,0.23999999463558197,0.0,0.027197496965527534,-1.4901161193847656e-07,0.0,0.052879638969898224,0.052879638957401304,-5.9604644775390625e-06,0.0,3.8370490074157715e-05,3.883067917663868e-05
340,16.95,0.23999997973442078,0.0,0.02984154224395752,1.4901161193847656e-07,0.0,0.052879806607961655,0.052879806272281595,1.4901161193847656e-05,0.0,-1.862645149230957e-05,2.3853496601554932e-05
341,17.0,0.24000000953674316,0.0,0.0324854776263237,1.4901161193847656e-07,0.0,0.05287881940603256,0.05287881998745504,-8.940696716308594e-06,0.0,-1.7508864402770996e-05,1.9659511449871603e-05
342,17.05,0.23999999463558197,0.0,0.035129424184560776,-1.4901161193847656e-07,0.0,0.05287937819957733,0.052879379177985464,-2.9802322387695312e-06,0.0,2.0116567611694336e-05,2.03361273764911e-05
343,17.1,0.23999999463558197,0.0,0.03777341544628143,1.4901161193847656e-07,0.0,0.052881091833114624,0.05288109193738274,8.940696716308594e-06,0.0,5.9604644775390625e-05,6.0271467018594396e-05
344,17.15,0.24000000953674316,0.0,0.04041753336787224,-1.4901161193847656e-07,0.0,0.05288064479827881,0.05288064504021546,-1.4901161193847656e-05,0.0,-4.32133674621582e-05,4.571038976364722e-05
345,17.2,0.23999997973442078,0.0,0.043061479926109314,-1.4901161193847656e-07,0.0,0.0528789684176445,0.05287896749104316,8.940696716308594e-06,0.0,-3.2782554626464844e-05,3.397987559733206e-05
346,17.25,0.23999999463558197,0.0,0.04570543020963669,1.4901161193847656e-07,0.0,0.052880123257637024,0.052880123288497706,2.9802322387695312e-06,0.0,4.544854164123535e-05,4.554614935987569e-05
347,17.3,0.23999999463558197,0.0,0.048349492251873016,1.4901161193847656e-07,0.0,0.052880048751831055,0.05288004843761807,2.9802322387695312e-06,0.0,-2.5331974029541016e-05,2.5506679368948473e-05
348,17.35,0.24000000953674316,0.0,0.050993435084819794,0.0,0.0,0.05287881940603256,0.052878819987245085,-8.940696716308594e-06,0.0,-2.5331974029541016e-05,2.686345037418596e-05
349,17.4,0.23999999463558197,0.0,0.05363737419247627,-2.980232238769531e-07,0.0,0.0528794527053833,0.05287945182891949,-5.9604644775390625e-06,0.0,2.60770320892334e-05,2.6749555872404937e-05
350,17.45,0.23999997973442078,0.0,0.056281380355358124,0.0,0.0,0.052880123257637024,0.052880123288287756,1.1920928955078125e-05,0.0,1.341104507446289e-05,1.7943374184954608e-05
351,17.5,0.23999999463558197,0.0,0.058925386518239975,1.4901161193847656e-07,0.0,0.05288008600473404,0.052880085863071136,0.0,0.0,-1.4901161193847656e-06,1.4901161193847656e-06
352,17.55,0.23999999463558197,0.0,0.06156938895583153,1.4901161193847656e-07,0.0,0.052879489958286285,0.05287948925416494,2.9802322387695312e-06,0.0,-2.3096799850463867e-05,2.32882791878101e-05
353,17.6,0.24000000953674316,0.0,0.0642133355140686,1.4901161193847656e-07,0.0,0.0528789684176445,0.05287896749104316,-2.9802322387695312e-06,0.0,-9.685754776000977e-06,1.0133885226201596e-05
354,17.65,0.24000000953674316,0.0,0.06685728579759598,0.0,0.0,0.052880123257637024,0.052880123288287756,-2.9802322387695312e-06,0.0,4.544854164123535e-05,4.554614935987569e-05
355,17.7,0.24000000953674316,0.0,0.0695013478398323,0.0,0.0,0.05288071930408478,0.05288071989004067,0.0,0.0,1.4901161193847656e-06,1.4901161193847656e-06
356,17.75,0.24000000953674316,0.0,0.07214535772800446,-1.4901161193847656e-07,0.0,0.05288027226924896,0.05288027298993913,-5.9604644775390625e-06,0.0,-7.450580596923828e-06,9.541398640621973e-06
357,17.8,0.23999999463558197,0.0,0.0747893750667572,0.0,0.0,0.05287967622280121,0.052879676382934226,8.940696716308594e-06,0.0,-2.5331974029541016e-05,2.686345037418596e-05
358,17.85,0.24000000953674316,0.0,0.07743332535028458,1.4901161193847656e-07,0.0,0.05288019776344299,0.052880198139271396,0.0,0.0,3.427267074584961e-05,3.427267074584961e-05
359,17.9,0.24000000953674316,0.0,0.0800773948431015,0.0,0.0,0.05288027226924896,0.05288027298972918,-2.9802322387695312e-06,0.0,-2.086162567138672e-05,2.1073424255447017e-05
360,17.95,0.24000000953674316,0.0,0.08272135257720947,-1.4901161193847656e-07,0.0,0.05287885665893555,0.05287885741377755,-5.9604644775390625e-06,0.0,-3.427267074584961e-05,3.478711107352004e-05
361,18.0,0.23999999463558197,0.0,0.08536528050899506,-1.4901161193847656e-07,0.0,0.052879899740219116,0.05287989873554095,2.9802322387695312e-06,0.0,4.76837158203125e-05,4.777675730550705e-05
362,18.05,0.23999999463558197,0.0,0.08800934255123138,0.0,0.0,0.052880048751831055,0.05288004843740812,2.9802322387695312e-06,0.0,-2.086162567138672e-05,2.1073424255447017e-05
363,18.1,0.23999999463558197,0.0,0.09065328538417816,1.4901161193847656e-07,0.0,0.0528794527053833,0.052879451828289625,5.9604644775390625e-06,0.0,0.0,5.9604644775390625e-06
364,18.15,0.24000000953674316,0.0,0.09329728782176971,0.0,0.0,0.05287952721118927,0.052879526679803814,-8.940696716308594e-06,0.0,-8.940696716308594e-06,1.264405455326821e-05
365,18.2,0.23999999463558197,0.0,0.09594123810529709,-2.980232238769531e-07,0.0,0.052880123257637024,0.05288012328912756,-5.9604644775390625e-06,0.0,3.427267074584961e-05,3.478711107352004e-05
366,18.25,0.23999997973442078,0.0,0.09858530014753342,1.4901161193847656e-07,0.0,0.052880123257637024,0.052880123288497706,1.7881393432617188e-05,0.0,-2.2351741790771484e-05,2.862419592186592e-05
367,18.3,0.24000000953674316,0.0,0.10122925043106079,1.4901161193847656e-07,0.0,0.05287952721118927,0.052879526680013764,-8.940696716308594e-06,0.0,-1.4901161193847656e-06,9.064022496787041e-06
368,18.35,0.23999999463558197,0.0,0.10387325286865234,-1.4901161193847656e-07,0.0,0.052880048751831055,0.05288004843761807,-2.9802322387695312e-06,0.0,1.043081283569336e-05,1.0848209096909341e-05
369,18.4,0.23999999463558197,0.0,0.1065172553062439,0.0,0.0,0.052880123257637024,0.052880123288287756,2.9802322387695312e-06,0.0,2.9802322387695312e-06,4.214684851089403e-06
370,18.45,0.23999999463558197,0.0,0.10916126519441605,1.4901161193847656e-07,0.0,0.052880123257637024,0.052880123288497706,5.9604644775390625e-06,0.0,-1.4901161193847656e-06,6.143906154658885e-06
371,18.5,0.24000000953674316,0.0,0.1118052676320076,0.0,0.0,0.05287937819957733,0.052879379177775514,-8.940696716308594e-06,0.0,-2.8312206268310547e-05,2.9690353341655843e-05
372,18.55,0.23999999463558197,0.0,0.11444920301437378,-1.4901161193847656e-07,0.0,0.05287885665893555,0.05287885741377755,0.0,0.0,-7.450580596923828e-06,7.450580596923828e-06
373,18.6,0.23999999463558197,0.0,0.11709315329790115,0.0,0.0,0.052880048751831055,0.05288004843740812,2.9802322387695312e-06,0.0,4.470348358154297e-05,4.480271452180418e-05
374,18.65,0.23999999463558197,0.0,0.11973720788955688,1.4901161193847656e-07,0.0,0.052879974246025085,0.05287997358663248,5.9604644775390625e-06,0.0,-2.384185791015625e-05,2.457562461863554e-05
375,18.7,0.24000000953674316,0.0,0.12238115072250366,1.4901161193847656e-07,0.0,0.05287930369377136,0.052879304326052534,-2.9802322387695312e-06,0.0,-4.470348358154297e-06,5.372690074837192e-06
376,18.75,0.24000000953674316,0.0,0.12502513825893402,0.0,0.0,0.052879899740219116,0.05287989873533099,-2.9802322387695312e-06,0.0,1.4901161193847656e-05,1.5196262340524151e-05
377,18.8,0.24000000953674316,0.0,0.12766914069652557,0.0,0.0,0.05287960171699524,0.052879601531421995,0.0,0.0,-1.4901161193847656e-05,1.4901161193847656e-05
378,18.85,0.24000000953674316,0.0,0.13031309843063354,-2.980232238769531e-07,0.0,0.05287960171699524,0.05287960153226181,-1.1920928955078125e-05,0.0,8.940696716308594e-06,1.4901161193847656e-05
379,18.9,0.23999997973442078,0.0,0.1329571008682251,-4.470348358154297e-07,0.0,0.05288064479827881,0.05288064504189505,0.0,0.0,3.2782554626464844e-05,3.2782554626464844e-05
380,18.95,0.23999996483325958,0.0,0.13560116291046143,1.4901161193847656e-07,0.0,0.052880048751831055,0.05288004843761807,2.086162567138672e-05,0.0,-3.5762786865234375e-05,4.140270945265831e-05
381,19.0,0.23999999463558197,0.0,0.1382451057434082,4.470348358154297e-07,0.0,0.05288019776344299,0.052880198140951,2.9802322387695312e-06,0.0,2.9802322387695312e-05,2.9950963321688443e-05
382,19.05,0.24000000953674316,0.0,0.14088918268680573,2.980232238769531e-07,0.0,0.052880048751831055,0.05288004843824792,-2.9802322387695312e-06,0.0,-3.2782554626464844e-05,3.2917740992269697e-05
383,19.1,0.24000002443790436,0.0,0.1435331106185913,-1.4901161193847656e-07,0.0,0.05287870764732361,0.05287870770832858,-1.7881393432617188e-05,0.0,-2.384185791015625e-05,2.9802322387695312e-05
384,19.15,0.23999999463558197,0.0,0.14617705345153809,-2.980232238769531e-07,0.0,0.052879899740219116,0.0528798987361708,2.9802322387695312e-06,0.0,4.470348358154297e-05,4.480271452180418e-05
385,19.2,0.23999999463558197,0.0,0.14882110059261322,-1.4901161193847656e-07,0.0,0.05287975072860718,0.05287975123455045,0.0,0.0,-2.682209014892578e-05,2.682209014892578e-05
386,19.25,0.23999997973442078,0.0,0.1514650285243988,-1.4901161193847656e-07,0.0,0.05287870764732361,0.05287870770832858,2.9802322387695312e-06,0.0,-1.7881393432617188e-05,1.8128044993574082e-05
387,19.3,0.23999997973442078,0.0,0.15410897135734558,0.0,0.0,0.05287885665893555,0.05287885741356759,2.9802322387695312e-06,0.0,2.9802322387695312e-06,4.214684851089403e-06
388,19.35,0.23999997973442078,0.0,0.15675291419029236,-1.4901161193847656e-07,0.0,0.052879899740219116,0.05287989873554095,-5.9604644775390625e-06,0.0,4.172325134277344e-05,4.214684851089403e-05
389,19.4,0.23999996483325958,0.0,0.1593969613313675,1.4901161193847656e-07,0.0,0.05287975072860718,0.05287975123455045,1.4901161193847656e-05,0.0,-2.682209014892578e-05,3.068336886461675e-05
390,19.45,0.23999999463558197,0.0,0.16204088926315308,4.470348358154297e-07,0.0,0.05287855863571167,0.052878558004135434,2.9802322387695312e-06,0.0,-2.384185791015625e-05,2.4027400458748785e-05
391,19.5,0.24000000953674316,0.0,0.16468481719493866,1.4901161193847656e-07,0.0,0.05288079380989075,0.05288079474017984,-8.940696716308594e-06,0.0,8.940696716308594e-05,8.985288996506533e-05
392,19.55,0.24000000953674316,0.0,0.16732896864414215,0.0,0.0,0.052880942821502686,0.05288094223804973,-2.9802322387695312e-06,0.0,-3.8743019104003906e-05,3.8857474358097606e-05
393,19.6,0.24000000953674316,0.0,0.16997291147708893,0.0,0.0,0.05287870764732361,0.05287870770811862,0.0,0.0,-4.76837158203125e-05,4.76837158203125e-05
394,19.65,0.24000000953674316,0.0,0.1726168394088745,-1.4901161193847656e-07,0.0,0.05287855863571167,0.05287855800245578,-5.9604644775390625e-06,0.0,-2.9802322387695312e-06,6.664001874625056e-06
395,19.7,0.23999999463558197,0.0,0.1752607673406601,-1.4901161193847656e-07,0.0,0.052879899740219116,0.05287989873554095,2.9802322387695312e-06,0.0,5.364418029785156e-05,5.372690074837192e-05
396,19.75,0.23999999463558197,0.0,0.17790482938289642,0.0,0.0,0.052879899740219116,0.05287989873533099,2.9802322387695312e-06,0.0,-2.682209014892578e-05,2.6987150723151615e-05
397,19.8,0.23999999463558197,0.0,0.180548757314682,1.4901161193847656e-07,0.0,0.05287855863571167,0.05287855800245578,5.9604644775390625e-06,0.0,-2.682209014892578e-05,2.7476383618393205e-05
398,19.85,0.24000000953674316,0.0,0.1831926852464676,0.0,0.0,0.05287975072860718,0.0528797512343405,-8.940696716308594e-06,0.0,4.76837158203125e-05,4.851466594964178e-05
399,19.9,0.23999999463558197,0.0,0.18583673238754272,-2.980232238769531e-07,0.0,0.05287975072860718,0.05287975123518031,-5.9604644775390625e-06,0.0,-2.384185791015625e-05,2.457562461863554e-05
400,19.95,0.23999997973442078,0.0,0.1884806603193283,-1.4901161193847656e-07,0.0,0.05287975072860718,0.05287975123455045,5.9604644775390625e-06,0.0,2.384185791015625e-05,2.457562461863554e-05
401,20.0,0.23999997973442078,0.0,0.19112470746040344,0.0,0.0,0.05287975072860718,0.0528797512343405,2.9802322387695312e-06,0.0,-2.384185791015625e-05,2.4027400458748785e-05
402,20.05,0.23999997973442078,0.0,0.19376863539218903,2.980232238769531e-07,0.0,0.05287870764732361,0.05287870770895845,1.1920928955078125e-05,0.0,-1.7881393432617188e-05,2.1490760299348767e-05
403,20.1,0.24000000953674316,0.0,0.1964125782251358,1.4901161193847656e-07,0.0,0.05287975072860718,0.05287975123455045,-1.1920928955078125e-05,0.0,3.8743019104003906e-05,4.053554090480638e-05
404,20.15,0.23999999463558197,0.0,0.19905661046504974,0.0,0.0,0.05287975072860718,0.0528797512343405,2.9802322387695312e-06,0.0,-1.7881393432617188e-05,1.8128044993574082e-05
405,20.2,0.24000000953674316,0.0,0.20170055329799652,1.4901161193847656e-07,0.0,0.052879899740219116,0.05287989873554095,0.0,0.0,2.384185791015625e-05,2.384185791015625e-05
406,20.25,0.24000000953674316,0.0,0.20434460043907166,0.0,0.0,0.052879899740219116,0.05287989873533099,-2.9802322387695312e-06,0.0,-2.086162567138672e-05,2.1073424255447017e-05
407,20.3,0.24000000953674316,0.0,0.20698854327201843,-1.4901161193847656e-07,0.0,0.052880048751831055,0.05288004843761807,-5.9604644775390625e-06,0.0,2.682209014892578e-05,2.7476383618393205e-05
408,20.35,0.23999999463558197,0.0,0.20963260531425476,0.0,0.0,0.052879899740219116,0.05287989873533099,8.940696716308594e-06,0.0,-2.9802322387695312e-05,3.11145380404906e-05
409,20.4,0.24000000953674316,0.0,0.21227653324604034,0.0,0.0,0.05287855863571167,0.05287855800224582,-5.9604644775390625e-06,0.0,-2.682209014892578e-05,2.7476383618393205e-05
410,20.45,0.23999999463558197,0.0,0.21492046117782593,-1.4901161193847656e-07,0.0,0.052879899740219116,0.05287989873554095,0.0,0.0,5.364418029785156e-05,5.364418029785156e-05
411,20.5,0.23999999463558197,0.0,0.21756452322006226,0.0,0.0,0.052879899740219116,0.05287989873533099,2.9802322387695312e-06,0.0,-2.682209014892578e-05,2.6987150723151615e-05
412,20.55,0.23999999463558197,0.0,0.22020845115184784,1.4901161193847656e-07,0.0,0.05287855863571167,0.05287855800245578,5.9604644775390625e-06,0.0,-2.682209014892578e-05,2.7476383618393205e-05
413,20.6,0.24000000953674316,0.0,0.22285237908363342,1.4901161193847656e-07,0.0,0.05287870764732361,0.05287870770832858,-2.9802322387695312e-06,0.0,5.9604644775390625e-06,6.664001874625056e-06
414,20.65,0.24000000953674316,0.0,0.2254963219165802,-1.4901161193847656e-07,0.0,0.052881091833114624,0.05288109193738274,-8.940696716308594e-06,0.0,9.238719940185547e-05,9.281880558966063e-05
415,20.7,0.23999999463558197,0.0,0.22814048826694489,0.0,0.0,0.05288124084472656,0.052881241635872066,8.940696716308594e-06,0.0,-3.8743019104003906e-05,3.976125736274223e-05
416,20.75,0.24000000953674316,0.0,0.23078444600105286,-1.4901161193847656e-07,0.0,0.052879005670547485,0.05287900491726127,-1.1920928955078125e-05,0.0,-4.76837158203125e-05,4.915124923727108e-05
417,20.8,0.23999997973442078,0.0,0.23342838883399963,-1.4901161193847656e-07,0.0,0.05287885665893555,0.05287885741377755,8.940696716308594e-06,0.0,-2.9802322387695312e-06,9.424321830774485e-06
418,20.85,0.23999999463558197,0.0,0.2360723316669464,1.4901161193847656e-07,0.0,0.052880048751831055,0.05288004843761807,2.9802322387695312e-06,0.0,4.76837158203125e-05,4.777675730550705e-05
419,20.9,0.23999999463558197,0.0,0.23871639370918274,0.0,0.0,0.05288019776344299,0.052880198139061446,-2.9802322387695312e-06,0.0,-1.7881393432617188e-05,1.8128044993574082e-05
420,20.95,0.23999999463558197,0.0,0.2413603514432907,0.0,0.0,0.052879005670547485,0.05287900491705132,0.0,0.0,-2.682209014892578e-05,2.682209014892578e-05
421,21.0,0.23999999463558197,0.0,0.2440042942762375,0.0,0.0,0.05288019776344299,0.052880198139061446,0.0,0.0,5.066394805908203e-05,5.066394805908203e-05
422,21.05,0.23999999463558197,0.0,0.246648371219635,-1.4901161193847656e-07,0.0,0.05288019776344299,0.052880198139271396,-5.9604644775390625e-06,0.0,-2.682209014892578e-05,2.7476383618393205e-05
423,21.1,0.23999997973442078,0.0,0.2492923140525818,0.0,0.0,0.05287885665893555,0.05287885741356759,8.940696716308594e-06,0.0,-2.682209014892578e-05,2.8272965492323453e-05
424,21.15,0.23999999463558197,0.0,0.25193625688552856,1.4901161193847656e-07,0.0,0.05287885665893555,0.05287885741377755,0.0,0.0,0.0,0.0
425,21.2,0.23999999463558197,0.0,0.25458019971847534,-1.4901161193847656e-07,0.0,0.052880048751831055,0.05288004843761807,-8.940696716308594e-06,0.0,4.76837158203125e-05,4.851466594964178e-05
426,21.25,0.23999997973442078,0.0,0.25722426176071167,0.0,0.0,0.052880942821502686,0.05288094223804973,8.940696716308594e-06,0.0,1.1920928955078125e-05,1.4901161193847656e-05
427,21.3,0.23999999463558197,0.0,0.2598682940006256,1.4901161193847656e-07,0.0,0.05287975072860718,0.05287975123455045,0.0,0.0,-4.172325134277344e-05,4.172325134277344e-05
428,21.35,0.23999999463558197,0.0,0.2625122368335724,0.0,0.0,0.052879154682159424,0.05287915462165886,-2.9802322387695312e-06,0.0,-5.9604644775390625e-06,6.664001874625056e-06
429,21.4,0.23999999463558197,0.0,0.26515620946884155,1.4901161193847656e-07,0.0,0.05288034677505493,0.05288034784050092,5.9604644775390625e-06,0.0,4.172325134277344e-05,4.214684851089403e-05
430,21.45,0.24000000953674316,0.0,0.2678002715110779,0.0,0.0,0.05288034677505493,0.05288034784029097,-8.940696716308594e-06,0.0,-1.7881393432617188e-05,1.999200562387517e-05
431,21.5,0.23999999463558197,0.0,0.27044424414634705,-1.4901161193847656e-07,0.0,0.052879154682159424,0.05287915462186882,0.0,0.0,-2.9802322387695312e-05,2.9802322387695312e-05
432,21.55,0.23999999463558197,0.0,0.2730881869792938,1.4901161193847656e-07,0.0,0.052880048751831055,0.05288004843761807,8.940696716308594e-06,0.0,4.172325134277344e-05,4.267043192170964e-05
433,21.6,0.24000000953674316,0.0,0.27573224902153015,0.0,0.0,0.052880048751831055,0.05288004843740812,-8.940696716308594e-06,0.0,-2.384185791015625e-05,2.5463115409962925e-05
434,21.65,0.23999999463558197,0.0,0.27837619185447693,-2.980232238769531e-07,0.0,0.052880048751831055,0.05288004843824792,-5.9604644775390625e-06,0.0,2.384185791015625e-05,2.457562461863554e-05
435,21.7,0.23999997973442078,0.0,0.28102025389671326,-1.4901161193847656e-07,0.0,0.05288034677505493,0.05288034784050092,5.9604644775390625e-06,0.0,-1.1920928955078125e-05,1.3328003749250112e-05
436,21.75,0.23999997973442078,0.0,0.2836642265319824,-1.4901161193847656e-07,0.0,0.05288034677505493,0.05288034784050092,-2.9802322387695312e-06,0.0,1.7881393432617188e-05,1.8128044993574082e-05
437,21.8,0.23999996483325958,0.0,0.28630828857421875,0.0,0.0,0.05288034677505493,0.05288034784029097,8.940696716308594e-06,0.0,-1.7881393432617188e-05,1.999200562387517e-05
438,21.85,0.23999997973442078,0.0,0.2889522612094879,2.980232238769531e-07,0.0,0.05288034677505493,0.05288034784113077,5.9604644775390625e-06,0.0,1.7881393432617188e-05,1.884864366154897e-05
439,21.9,0.23999999463558197,0.0,0.29159632325172424,2.980232238769531e-07,0.0,0.05288034677505493,0.05288034784113077,0.0,0.0,-1.7881393432617188e-05,1.7881393432617188e-05
440,21.95,0.24000000953674316,0.0,0.2942402958869934,1.4901161193847656e-07,0.0,0.052879154682159424,0.05287915462186882,-5.9604644775390625e-06,0.0,-2.9802322387695312e-05,3.0392524681048303e-05
441,22.0,0.24000000953674316,0.0,0.2968842387199402,0.0,0.0,0.05288034677505493,0.05288034784029097,-2.9802322387695312e-06,0.0,5.364418029785156e-05,5.372690074837192e-05
442,22.05,0.24000000953674316,0.0,0.2995283305644989,-1.4901161193847656e-07,0.0,0.05288034677505493,0.05288034784050092,-5.9604644775390625e-06,0.0,-2.9802322387695312e-05,3.0392524681048303e-05
443,22.1,0.23999999463558197,0.0,0.3021722733974457,-2.980232238769531e-07,0.0,0.052879154682159424,0.05287915462249868,-2.9802322387695312e-06,0.0,-1.7881393432617188e-05,1.8128044993574082e-05
444,22.15,0.23999997973442078,0.0,0.30481624603271484,-1.4901161193847656e-07,0.0,0.05288034677505493,0.05288034784050092,5.9604644775390625e-06,0.0,4.172325134277344e-05,4.214684851089403e-05
445,22.2,0.23999997973442078,0.0,0.30746030807495117,0.0,0.0,0.052880048751831055,0.05288004843740812,2.9802322387695312e-06,0.0,-2.9802322387695312e-05,2.9950963321688443e-05
446,22.25,0.23999997973442078,0.0,0.31010425090789795,0.0,0.0,0.05287885665893555,0.05287885741356759,0.0,0.0,-2.384185791015625e-05,2.384185791015625e-05
447,22.3,0.23999997973442078,0.0,0.3127481937408447,0.0,0.0,0.05287885665893555,0.05287885741356759,0.0,0.0,0.0,0.0
448,22.35,0.23999997973442078,0.0,0.3153921365737915,1.4901161193847656e-07,0.0,0.052880048751831055,0.05288004843761807,5.9604644775390625e-06,0.0,4.76837158203125e-05,4.805480091749757e-05
449,22.4,0.23999999463558197,0.0,0.31803619861602783,1.4901161193847656e-07,0.0,0.052880048751831055,0.05288004843761807,-2.9802322387695312e-06,0.0,-2.384185791015625e-05,2.4027400458748785e-05
450,22.45,0.23999999463558197,0.0,0.3206801414489746,-1.4901161193847656e-07,0.0,0.052880048751831055,0.05288004843761807,-8.940696716308594e-06,0.0,2.384185791015625e-05,2.5463115409962925e-05
451,22.5,0.23999997973442078,0.0,0.32332420349121094,-1.4901161193847656e-07,0.0,0.05288153886795044,0.052881538830773324,2.9802322387695312e-06,0.0,3.5762786865234375e-05,3.5886748369909216e-05
452,22.55,0.23999997973442078,0.0,0.32596829533576965,1.4901161193847656e-07,0.0,0.05288064479827881,0.05288064504021546,8.940696716308594e-06,0.0,-4.172325134277344e-05,4.267043192170964e-05
453,22.6,0.23999999463558197,0.0,0.3286122679710388,0.0,0.0,0.052879154682159424,0.05287915462165886,-8.940696716308594e-06,0.0,-3.5762786865234375e-05,3.686343692795331e-05
454,22.65,0.23999997973442078,0.0,0.3312562108039856,-1.4901161193847656e-07,0.0,0.052879154682159424,0.05287915462186882,0.0,0.0,5.9604644775390625e-06,5.9604644775390625e-06
455,22.7,0.23999997973442078,0.0,0.33390018343925476,1.4901161193847656e-07,0.0,0.05288064479827881,0.05288064504021546,8.940696716308594e-06,0.0,5.364418029785156e-05,5.4384134980722244e-05
456,22.75,0.23999999463558197,0.0,0.3365442752838135,1.4901161193847656e-07,0.0,0.05288034677505493,0.05288034784050092,-2.9802322387695312e-06,0.0,-3.5762786865234375e-05,3.5886748369909216e-05
457,22.8,0.23999999463558197,0.0,0.33918821811676025,0.0,0.0,0.0528794527053833,0.052879451828079675,-2.9802322387695312e-06,0.0,-5.9604644775390625e-06,6.664001874625056e-06
458,22.85,0.23999999463558197,0.0,0.3418322205543518,-1.4901161193847656e-07,0.0,0.05288064479827881,0.05288064504021546,-5.9604644775390625e-06,0.0,3.5762786865234375e-05,3.6256089987148165e-05
459,22.9,0.23999997973442078,0.0,0.34447628259658813,-1.4901161193847656e-07,0.0,0.05287975072860718,0.05287975123455045,2.9802322387695312e-06,0.0,-4.76837158203125e-05,4.777675730550705e-05
460,22.95,0.23999997973442078,0.0,0.3471201956272125,2.980232238769531e-07,0.0,0.05287826061248779,0.05287826079164102,1.4901161193847656e-05,0.0,-2.9802322387695312e-05,3.332000937312528e-05
461,23.0,0.24000000953674316,0.0,0.3497641086578369,1.4901161193847656e-07,0.0,0.0528794527053833,0.052879451828289625,-1.1920928955078125e-05,0.0,4.76837158203125e-05,4.915124923727108e-05
462,23.05,0.23999999463558197,0.0,0.35240814089775085,-1.4901161193847656e-07,0.0,0.05287975072860718,0.05287975123455045,-2.9802322387695312e-06,0.0,-1.1920928955078125e-05,1.228781230931777e-05
463,23.1,0.23999999463558197,0.0,0.35505208373069763,0.0,0.0,0.05288034677505493,0.05288034784029097,2.9802322387695312e-06,0.0,4.172325134277344e-05,4.182955279236495e-05
464,23.15,0.23999999463558197,0.0,0.35769617557525635,1.4901161193847656e-07,0.0,0.05288034677505493,0.05288034784050092,5.9604644775390625e-06,0.0,-2.9802322387695312e-05,3.0392524681048303e-05
465,23.2,0.24000000953674316,0.0,0.3603401184082031,-1.4901161193847656e-07,0.0,0.05287975072860718,0.05287975123455045,-1.4901161193847656e-05,0.0,5.9604644775390625e-06,1.6049041769309354e-05
466,23.25,0.23999997973442078,0.0,0.36298415064811707,0.0,0.0,0.05288034677505493,0.05288034784029097,1.4901161193847656e-05,0.0,5.9604644775390625e-06,1.6049041769309354e-05
467,23.3,0.24000000953674316,0.0,0.3656281530857086,0.0,0.0,0.052880942821502686,0.05288094223804973,-1.1920928955078125e-05,0.0,2.9802322387695312e-05,3.209808353861871e-05
468,23.35,0.23999997973442078,0.0,0.36827224493026733,0.0,0.0,0.05288034677505493,0.05288034784029097,1.1920928955078125e-05,0.0,-4.172325134277344e-05,4.3392836387637365e-05
469,23.4,0.24000000953674316,0.0,0.3709161877632141,2.980232238769531e-07,0.0,0.05287885665893555,0.05287885741440742,0.0,0.0,-2.9802322387695312e-05,2.9802322387695312e-05
470,23.45,0.24000000953674316,0.0,0.3735601305961609,-1.4901161193847656e-07,0.0,0.05287975072860718,0.05287975123455045,-1.1920928955078125e-05,0.0,3.5762786865234375e-05,3.769728732309794e-05
471,23.5,0.23999999463558197,0.0,0.37620416283607483,-1.4901161193847656e-07,0.0,0.05288034677505493,0.05288034784050092,2.9802322387695312e-06,0.0,5.9604644775390625e-06,6.664001874625056e-06
472,23.55,0.23999999463558197,0.0,0.3788481652736664,1.4901161193847656e-07,0.0,0.0528794527053833,0.052879451828289625,8.940696716308594e-06,0.0,-2.9802322387695312e-05,3.11145380404906e-05
473,23.6,0.24000000953674316,0.0,0.38149210810661316,0.0,0.0,0.05287855863571167,0.05287855800224582,-8.940696716308594e-06,0.0,-2.384185791015625e-05,2.5463115409962925e-05
474,23.65,0.23999999463558197,0.0,0.38413602113723755,-2.980232238769531e-07,0.0,0.052880942821502686,0.052880942238889526,-5.9604644775390625e-06,0.0,0.00010132789611816406,0.00010150305250839234
475,23.7,0.23999997973442078,0.0,0.3867802023887634,1.4901161193847656e-07,0.0,0.052880942821502686,0.05288094223825968,1.7881393432617188e-05,0.0,-5.364418029785156e-05,5.6545930984646906e-05
476,23.75,0.24000000953674316,0.0,0.3894241154193878,0.0,0.0,0.052879154682159424,0.05287915462165886,-1.4901161193847656e-05,0.0,-1.7881393432617188e-05,2.3276357876976296e-05
477,23.8,0.23999997973442078,0.0,0.39206811785697937,-2.980232238769531e-07,0.0,0.05287975072860718,0.05287975123518031,0.0,0.0,5.9604644775390625e-06,5.9604644775390625e-06
478,23.85,0.23999997973442078,0.0,0.39471209049224854,2.980232238769531e-07,0.0,0.05288034677505493,0.05288034784113077,1.7881393432617188e-05,0.0,2.9802322387695312e-05,3.47551816394645e-05
479,23.9,0.24000000953674316,0.0,0.39735615253448486,2.980232238769531e-07,0.0,0.0528794527053833,0.05287945182891949,-5.9604644775390625e-06,0.0,-5.364418029785156e-05,5.397430144630323e-05
480,23.95,0.24000000953674316,0.0,0.40000003576278687,0.0,0.0,0.05287766456604004,0.05287766416130304,-5.9604644775390625e-06,0.0,-3.5762786865234375e-05,3.6256089987148165e-05
